File: Data Files/Full/dt csv/Processed_XRD_Data.csv
,omega,Position,Intensity,amorphous_range,crystalline_range,amorphous_fit_amplitude,amorphous_fit_amplitude_uncertainty,amorphous_fit_mean,amorphous_fit_mean_uncertainty,amorphous_fit_std_dev,amorphous_fit_std_dev_uncertainty,amorphous_fit_background,amorphous_fit_background_uncertainty,chi_squared_amorphous,amorphous_nu,amorphous_fit_amorphous_x_range_used,amorphous_fit_amorphous_y_range_used,crystalline_fit_amplitude,crystalline_fit_amplitude_uncertainty,crystalline_fit_mean,crystalline_fit_mean_uncertainty,crystalline_fit_std_dev,crystalline_fit_std_dev_uncertainty,crystalline_fit_background,crystalline_fit_background_uncertainty,chi_squared_crystalline,crystalline_nu,crystalline_fit_crystalline_x_range_used,crystalline_fit_crystalline_y_range_used,max_amorphous,max_crystalline,amorphous_area,crystalline_area,amorphous_percentage,crystalline_percentage,amorphous_percentage_intensity,crystalline_percentage_intensity,effective_depth,effective_depth_intensity
"MSS dt (0-129, 0.25w, 0D).csv",0.25,"[4.0000e-02 1.2000e-01 2.0000e-01 2.8000e-01 3.6000e-01 4.4000e-01
 1.0120e+01 1.0200e+01 1.0280e+01 1.0360e+01 1.0440e+01 1.0520e+01
 2.0200e+01 2.0280e+01 2.0360e+01 2.0440e+01 2.0520e+01 2.0600e+01
 3.0280e+01 3.0360e+01 3.0440e+01 3.0520e+01 3.0600e+01 3.0680e+01
 4.0360e+01 4.0440e+01 4.0520e+01 4.0600e+01 4.0680e+01 4.0760e+01
 5.0440e+01 5.0520e+01 5.0600e+01 5.0680e+01 5.0760e+01 5.0840e+01
 6.0520e+01 6.0600e+01 6.0680e+01 6.0760e+01 6.0840e+01 6.0920e+01
 7.0600e+01 7.0680e+01 7.0760e+01 7.0840e+01 7.0920e+01 7.1000e+01
 8.0680e+01 8.0760e+01 8.0840e+01 8.0920e+01 8.1000e+01 8.1080e+01
 9.0760e+01 9.0840e+01 9.0920e+01 9.1000e+01 9.1080e+01 9.1160e+01
 1.0084e+02 1.0092e+02 1.0100e+02 1.0108e+02 1.0116e+02 1.0124e+02
 1.1092e+02 1.1100e+02 1.1108e+02 1.1116e+02 1.1124e+02 1.1132e+02
 1.2100e+02 1.2108e+02 1.2116e+02 1.2124e+02 1.2132e+02 1.2140e+02
 5.510000e+04 5.140700e+04 4.058900e+04 2.874400e+04 2.333400e+04
 1.300000e+02 1.320000e+02 1.100000e+02 1.230000e+02 1.320000e+02
 1.220000e+02 1.320000e+02 1.310000e+02 1.150000e+02 1.330000e+02
 9.000000e+01 7.000000e+01 6.300000e+01 4.800000e+01 6.700000e+01
 5.600000e+01 6.300000e+01 3.900000e+01 3.100000e+01 4.400000e+01
 3.600000e+01 3.100000e+01 4.000000e+01 4.200000e+01 2.200000e+01
 2.900000e+01 3.300000e+01 3.300000e+01 2.900000e+01 3.700000e+01
 4.500000e+01 3.500000e+01 3.600000e+01 3.800000e+01 3.600000e+01
 2.700000e+01 2.600000e+01 2.700000e+01 4.600000e+01 3.200000e+01
 2.500000e+01 2.900000e+01 3.100000e+01 2.500000e+01 3.000000e+01
 3.200000e+01 1.800000e+01 4.700000e+01 1.600000e+01 2.300000e+01
 4.600000e+01 3.100000e+01 3.500000e+01 3.800000e+01 3.600000e+01
 4.800000e+01 4.800000e+01 4.600000e+01 5.800000e+01 4.200000e+01
 7.100000e+01 7.200000e+01 7.700000e+01 9.200000e+01 8.300000e+01
 1.050000e+02 8.600000e+01 8.300000e+01 1.000000e+02 9.200000e+01
 1.210000e+02 1.000000e+02 1.010000e+02 1.400000e+02 1.210000e+02
 253.652 262.652 255.652 249.652 248.652
 192.652 217.652 209.652 214.652 197.652
 3.2700e+00 3.3300e+00 3.3900e+00 3.4500e+00 3.5100e+00 3.5700e+00
 1.0830e+01 1.0890e+01 1.0950e+01 1.1010e+01 1.1070e+01 1.1130e+01
 1.8390e+01 1.8450e+01 1.8510e+01 1.8570e+01 1.8630e+01 1.8690e+01
 2.5950e+01 2.6010e+01 2.6070e+01 2.6130e+01 2.6190e+01 2.6250e+01
 3.3510e+01 3.3570e+01 3.3630e+01 3.3690e+01 3.3750e+01 3.3810e+01
 4.1070e+01 4.1130e+01 4.1190e+01 4.1250e+01 4.1310e+01 4.1370e+01
 4.8630e+01 4.8690e+01 4.8750e+01 4.8810e+01 4.8870e+01 4.8930e+01
 5.6190e+01 5.6250e+01 5.6310e+01 5.6370e+01 5.6430e+01 5.6490e+01
 6.3750e+01 6.3810e+01 6.3870e+01 6.3930e+01 6.3990e+01 6.4050e+01
 7.1310e+01 7.1370e+01 7.1430e+01 7.1490e+01 7.1550e+01 7.1610e+01
 7.8870e+01 7.8930e+01 7.8990e+01 7.9050e+01 7.9110e+01 7.9170e+01
 8.6430e+01 8.6490e+01 8.6550e+01 8.6610e+01 8.6670e+01 8.6730e+01
 9.3990e+01 9.4050e+01 9.4110e+01 9.4170e+01 9.4230e+01 9.4290e+01
 1.0155e+02 1.0161e+02 1.0167e+02 1.0173e+02 1.0179e+02 1.0185e+02
 1.0911e+02 1.0917e+02 1.0923e+02 1.0929e+02 1.0935e+02 1.0941e+02
 1.1667e+02 1.1673e+02 1.1679e+02 1.1685e+02 1.1691e+02 1.1697e+02
 1.2423e+02 1.2429e+02 1.2435e+02 1.2441e+02 1.2447e+02 1.2453e+02
 1.830600e+04 1.384100e+04 1.196000e+04 1.120100e+04 1.033700e+04
 3.600000e+02 3.410000e+02 3.450000e+02 3.360000e+02 3.350000e+02
 3.430000e+02 3.230000e+02 3.440000e+02 3.520000e+02 3.370000e+02
 4.820000e+02 5.060000e+02 5.530000e+02 5.330000e+02 5.440000e+02
 2.610000e+02 2.560000e+02 2.920000e+02 2.330000e+02 2.390000e+02
 1.050000e+02 1.270000e+02 1.380000e+02 1.200000e+02 1.300000e+02
 9.200000e+01 1.050000e+02 9.200000e+01 8.800000e+01 8.700000e+01
 6.900000e+01 7.100000e+01 7.200000e+01 6.800000e+01 8.100000e+01
 6.600000e+01 6.700000e+01 5.400000e+01 6.000000e+01 7.000000e+01
 5.600000e+01 6.800000e+01 4.600000e+01 5.000000e+01 5.000000e+01
 6.700000e+01 5.600000e+01 4.600000e+01 4.200000e+01 4.700000e+01
 3.800000e+01 4.200000e+01 4.700000e+01 4.800000e+01 4.600000e+01
 4.200000e+01 3.400000e+01 4.600000e+01 3.900000e+01 4.400000e+01
 3.300000e+01 4.900000e+01 3.500000e+01 4.100000e+01 4.800000e+01
 4.200000e+01 4.600000e+01 5.000000e+01 3.300000e+01 4.100000e+01
 5.300000e+01 4.000000e+01 4.400000e+01 4.000000e+01 4.800000e+01
 5.600000e+01 6.900000e+01 5.900000e+01 6.800000e+01 5.600000e+01
 1.110000e+02 1.110000e+02 1.420000e+02 1.300000e+02 1.250000e+02
 1.160000e+02 1.010000e+02 8.800000e+01 9.800000e+01 8.500000e+01
 1.080000e+02 1.110000e+02 1.370000e+02 1.230000e+02 1.280000e+02
 1.480000e+02 1.460000e+02 1.500000e+02 1.250000e+02 1.470000e+02
 272.703 268.703 274.703 284.703 259.703
 393.703 389.703 321.703 376.703 328.703
  73.7026  74.7026  70.7026  62.7026  63.7026
"MSS dt (0-129, 1w, 0D).csv",1.0,"[4.0000e-02 1.2000e-01 2.0000e-01 2.8000e-01 3.6000e-01 4.4000e-01
 1.0120e+01 1.0200e+01 1.0280e+01 1.0360e+01 1.0440e+01 1.0520e+01
 2.0200e+01 2.0280e+01 2.0360e+01 2.0440e+01 2.0520e+01 2.0600e+01
 3.0280e+01 3.0360e+01 3.0440e+01 3.0520e+01 3.0600e+01 3.0680e+01
 4.0360e+01 4.0440e+01 4.0520e+01 4.0600e+01 4.0680e+01 4.0760e+01
 5.0440e+01 5.0520e+01 5.0600e+01 5.0680e+01 5.0760e+01 5.0840e+01
 6.0520e+01 6.0600e+01 6.0680e+01 6.0760e+01 6.0840e+01 6.0920e+01
 7.0600e+01 7.0680e+01 7.0760e+01 7.0840e+01 7.0920e+01 7.1000e+01
 8.0680e+01 8.0760e+01 8.0840e+01 8.0920e+01 8.1000e+01 8.1080e+01
 9.0760e+01 9.0840e+01 9.0920e+01 9.1000e+01 9.1080e+01 9.1160e+01
 1.0084e+02 1.0092e+02 1.0100e+02 1.0108e+02 1.0116e+02 1.0124e+02
 1.1092e+02 1.1100e+02 1.1108e+02 1.1116e+02 1.1124e+02 1.1132e+02
 1.2100e+02 1.2108e+02 1.2116e+02 1.2124e+02 1.2132e+02 1.2140e+02
 1.220370e+05 1.101160e+05 8.865800e+04 6.455800e+04 4.685700e+04
 6.160000e+02 6.280000e+02 5.610000e+02 6.020000e+02 5.660000e+02
 8.360000e+02 8.570000e+02 8.560000e+02 8.940000e+02 9.020000e+02
 7.350000e+02 6.930000e+02 6.810000e+02 7.310000e+02 7.370000e+02
 3.160000e+02 3.180000e+02 3.230000e+02 3.650000e+02 3.300000e+02
 2.250000e+02 2.430000e+02 2.040000e+02 2.300000e+02 2.460000e+02
 2.060000e+02 2.350000e+02 2.080000e+02 1.990000e+02 2.080000e+02
 1.440000e+02 1.400000e+02 1.640000e+02 1.320000e+02 1.710000e+02
 1.520000e+02 1.260000e+02 1.370000e+02 1.430000e+02 1.520000e+02
 1.660000e+02 1.420000e+02 1.000000e+02 1.360000e+02 1.090000e+02
 1.060000e+02 1.330000e+02 1.250000e+02 1.070000e+02 1.100000e+02
 1.280000e+02 1.350000e+02 1.500000e+02 1.420000e+02 1.240000e+02
 1.180000e+02 1.030000e+02 1.220000e+02 1.300000e+02 1.390000e+02
 1.460000e+02 1.340000e+02 1.460000e+02 1.710000e+02 1.590000e+02
 1.980000e+02 2.140000e+02 1.880000e+02 1.660000e+02 1.990000e+02
 2.330000e+02 2.400000e+02 2.210000e+02 2.410000e+02 2.660000e+02
  582.02  617.02  664.02  650.02  603.02
  153.02  156.02  169.02  105.02  178.02
 5.2000e-01 6.0000e-01 6.8000e-01 7.6000e-01 8.4000e-01 9.2000e-01
 1.0600e+01 1.0680e+01 1.0760e+01 1.0840e+01 1.0920e+01 1.1000e+01
 2.0680e+01 2.0760e+01 2.0840e+01 2.0920e+01 2.1000e+01 2.1080e+01
 3.0760e+01 3.0840e+01 3.0920e+01 3.1000e+01 3.1080e+01 3.1160e+01
 4.0840e+01 4.0920e+01 4.1000e+01 4.1080e+01 4.1160e+01 4.1240e+01
 5.0920e+01 5.1000e+01 5.1080e+01 5.1160e+01 5.1240e+01 5.1320e+01
 6.1000e+01 6.1080e+01 6.1160e+01 6.1240e+01 6.1320e+01 6.1400e+01
 7.1080e+01 7.1160e+01 7.1240e+01 7.1320e+01 7.1400e+01 7.1480e+01
 8.1160e+01 8.1240e+01 8.1320e+01 8.1400e+01 8.1480e+01 8.1560e+01
 9.1240e+01 9.1320e+01 9.1400e+01 9.1480e+01 9.1560e+01 9.1640e+01
 1.0132e+02 1.0140e+02 1.0148e+02 1.0156e+02 1.0164e+02 1.0172e+02
 1.1140e+02 1.1148e+02 1.1156e+02 1.1164e+02 1.1172e+02 1.1180e+02
 1.2148e+02 1.2156e+02 1.2164e+02 1.2172e+02 1.2180e+02 1.2188e+02
 5.645200e+04 4.725100e+04 4.165800e+04 3.776500e+04 3.426200e+04
 8.920000e+02 8.650000e+02 7.870000e+02 8.510000e+02 8.190000e+02
 1.278000e+03 1.373000e+03 1.367000e+03 1.490000e+03 1.290000e+03
 1.064000e+03 1.031000e+03 1.078000e+03 9.630000e+02 1.023000e+03
 5.630000e+02 5.740000e+02 6.250000e+02 5.410000e+02 6.040000e+02
 5.140000e+02 4.670000e+02 4.310000e+02 4.990000e+02 4.580000e+02
 6.680000e+02 5.110000e+02 5.320000e+02 4.860000e+02 5.360000e+02
 3.200000e+02 3.450000e+02 3.730000e+02 3.020000e+02 3.380000e+02
 2.660000e+02 2.990000e+02 2.850000e+02 2.890000e+02 2.980000e+02
 2.860000e+02 2.700000e+02 2.690000e+02 3.410000e+02 3.530000e+02
 2.540000e+02 2.690000e+02 2.450000e+02 2.790000e+02 2.650000e+02
 2.270000e+02 2.400000e+02 2.430000e+02 2.620000e+02 2.550000e+02
 2.440000e+02 2.440000e+02 2.600000e+02 2.250000e+02 2.440000e+02
 2.702000e+03 1.962000e+03 9.690000e+02 4.640000e+02 3.310000e+02
 3.660000e+02 3.790000e+02 3.830000e+02 3.860000e+02 3.580000e+02
 5.330000e+02 5.550000e+02 4.880000e+02 5.280000e+02 4.540000e+02
  702.562  825.562  706.562  653.562  679.562
  239.562  241.562  231.562  220.562  132.562
"MSS dt (0-129, 3w, 0D).csv",3.0,"[5.00000e-03 1.50000e-02 2.50000e-02 3.50000e-02 4.50000e-02 5.50000e-02
 1.26500e+00 1.27500e+00 1.28500e+00 1.29500e+00 1.30500e+00 1.31500e+00
 2.52500e+00 2.53500e+00 2.54500e+00 2.55500e+00 2.56500e+00 2.57500e+00
 3.78500e+00 3.79500e+00 3.80500e+00 3.81500e+00 3.82500e+00 3.83500e+00
 5.04500e+00 5.05500e+00 5.06500e+00 5.07500e+00 5.08500e+00 5.09500e+00
 6.30500e+00 6.31500e+00 6.32500e+00 6.33500e+00 6.34500e+00 6.35500e+00
 7.56500e+00 7.57500e+00 7.58500e+00 7.59500e+00 7.60500e+00 7.61500e+00
 8.82500e+00 8.83500e+00 8.84500e+00 8.85500e+00 8.86500e+00 8.87500e+00
 1.00850e+01 1.00950e+01 1.01050e+01 1.01150e+01 1.01250e+01 1.01350e+01
 1.13450e+01 1.13550e+01 1.13650e+01 1.13750e+01 1.13850e+01 1.13950e+01
 1.26050e+01 1.26150e+01 1.26250e+01 1.26350e+01 1.26450e+01 1.26550e+01
 1.38650e+01 1.38750e+01 1.38850e+01 1.38950e+01 1.39050e+01 1.39150e+01
 1.51250e+01 1.51350e+01 1.51450e+01 1.51550e+01 1.51650e+01 1.51750e+01
 1.63850e+01 1.63950e+01 1.64050e+01 1.64150e+01 1.64250e+01 1.64350e+01
 1.76450e+01 1.76550e+01 1.76650e+01 1.76750e+01 1.76850e+01 1.76950e+01
 1.89050e+01 1.89150e+01 1.89250e+01 1.89350e+01 1.89450e+01 1.89550e+01
 2.01650e+01 2.01750e+01 2.01850e+01 2.01950e+01 2.02050e+01 2.02150e+01
 2.14250e+01 2.14350e+01 2.14450e+01 2.14550e+01 2.14650e+01 2.14750e+01
 2.26850e+01 2.26950e+01 2.27050e+01 2.27150e+01 2.27250e+01 2.27350e+01
 2.39450e+01 2.39550e+01 2.39650e+01 2.39750e+01 2.39850e+01 2.39950e+01
 2.52050e+01 2.52150e+01 2.52250e+01 2.52350e+01 2.52450e+01 2.52550e+01
 2.64650e+01 2.64750e+01 2.64850e+01 2.64950e+01 2.65050e+01 2.65150e+01
 2.77250e+01 2.77350e+01 2.77450e+01 2.77550e+01 2.77650e+01 2.77750e+01
 2.89850e+01 2.89950e+01 2.90050e+01 2.90150e+01 2.90250e+01 2.90350e+01
 3.02450e+01 3.02550e+01 3.02650e+01 3.02750e+01 3.02850e+01 3.02950e+01
 3.15050e+01 3.15150e+01 3.15250e+01 3.15350e+01 3.15450e+01 3.15550e+01
 3.27650e+01 3.27750e+01 3.27850e+01 3.27950e+01 3.28050e+01 3.28150e+01
 3.40250e+01 3.40350e+01 3.40450e+01 3.40550e+01 3.40650e+01 3.40750e+01
 3.52850e+01 3.52950e+01 3.53050e+01 3.53150e+01 3.53250e+01 3.53350e+01
 3.65450e+01 3.65550e+01 3.65650e+01 3.65750e+01 3.65850e+01 3.65950e+01
 3.78050e+01 3.78150e+01 3.78250e+01 3.78350e+01 3.78450e+01 3.78550e+01
 3.90650e+01 3.90750e+01 3.90850e+01 3.90950e+01 3.91050e+01 3.91150e+01
 4.03250e+01 4.03350e+01 4.03450e+01 4.03550e+01 4.03650e+01 4.03750e+01
 4.15850e+01 4.15950e+01 4.16050e+01 4.16150e+01 4.16250e+01 4.16350e+01
 4.28450e+01 4.28550e+01 4.28650e+01 4.28750e+01 4.28850e+01 4.28950e+01
 4.41050e+01 4.41150e+01 4.41250e+01 4.41350e+01 4.41450e+01 4.41550e+01
 4.53650e+01 4.53750e+01 4.53850e+01 4.53950e+01 4.54050e+01 4.54150e+01
 4.66250e+01 4.66350e+01 4.66450e+01 4.66550e+01 4.66650e+01 4.66750e+01
 4.78850e+01 4.78950e+01 4.79050e+01 4.79150e+01 4.79250e+01 4.79350e+01
 4.91450e+01 4.91550e+01 4.91650e+01 4.91750e+01 4.91850e+01 4.91950e+01
 5.04050e+01 5.04150e+01 5.04250e+01 5.04350e+01 5.04450e+01 5.04550e+01
 5.16650e+01 5.16750e+01 5.16850e+01 5.16950e+01 5.17050e+01 5.17150e+01
 5.29250e+01 5.29350e+01 5.29450e+01 5.29550e+01 5.29650e+01 5.29750e+01
 5.41850e+01 5.41950e+01 5.42050e+01 5.42150e+01 5.42250e+01 5.42350e+01
 5.54450e+01 5.54550e+01 5.54650e+01 5.54750e+01 5.54850e+01 5.54950e+01
 5.67050e+01 5.67150e+01 5.67250e+01 5.67350e+01 5.67450e+01 5.67550e+01
 5.79650e+01 5.79750e+01 5.79850e+01 5.79950e+01 5.80050e+01 5.80150e+01
 5.92250e+01 5.92350e+01 5.92450e+01 5.92550e+01 5.92650e+01 5.92750e+01
 6.04850e+01 6.04950e+01 6.05050e+01 6.05150e+01 6.05250e+01 6.05350e+01
 6.17450e+01 6.17550e+01 6.17650e+01 6.17750e+01 6.17850e+01 6.17950e+01
 6.30050e+01 6.30150e+01 6.30250e+01 6.30350e+01 6.30450e+01 6.30550e+01
 6.42650e+01 6.42750e+01 6.42850e+01 6.42950e+01 6.43050e+01 6.43150e+01
 6.55250e+01 6.55350e+01 6.55450e+01 6.55550e+01 6.55650e+01 6.55750e+01
 6.67850e+01 6.67950e+01 6.68050e+01 6.68150e+01 6.68250e+01 6.68350e+01
 6.80450e+01 6.80550e+01 6.80650e+01 6.80750e+01 6.80850e+01 6.80950e+01
 6.93050e+01 6.93150e+01 6.93250e+01 6.93350e+01 6.93450e+01 6.93550e+01
 7.05650e+01 7.05750e+01 7.05850e+01 7.05950e+01 7.06050e+01 7.06150e+01
 7.18250e+01 7.18350e+01 7.18450e+01 7.18550e+01 7.18650e+01 7.18750e+01
 7.30850e+01 7.30950e+01 7.31050e+01 7.31150e+01 7.31250e+01 7.31350e+01
 7.43450e+01 7.43550e+01 7.43650e+01 7.43750e+01 7.43850e+01 7.43950e+01
 7.56050e+01 7.56150e+01 7.56250e+01 7.56350e+01 7.56450e+01 7.56550e+01
 7.68650e+01 7.68750e+01 7.68850e+01 7.68950e+01 7.69050e+01 7.69150e+01
 7.81250e+01 7.81350e+01 7.81450e+01 7.81550e+01 7.81650e+01 7.81750e+01
 7.93850e+01 7.93950e+01 7.94050e+01 7.94150e+01 7.94250e+01 7.94350e+01
 8.06450e+01 8.06550e+01 8.06650e+01 8.06750e+01 8.06850e+01 8.06950e+01
 8.19050e+01 8.19150e+01 8.19250e+01 8.19350e+01 8.19450e+01 8.19550e+01
 8.31650e+01 8.31750e+01 8.31850e+01 8.31950e+01 8.32050e+01 8.32150e+01
 8.44250e+01 8.44350e+01 8.44450e+01 8.44550e+01 8.44650e+01 8.44750e+01
 8.56850e+01 8.56950e+01 8.57050e+01 8.57150e+01 8.57250e+01 8.57350e+01
 8.69450e+01 8.69550e+01 8.69650e+01 8.69750e+01 8.69850e+01 8.69950e+01
 8.82050e+01 8.82150e+01 8.82250e+01 8.82350e+01 8.82450e+01 8.82550e+01
 8.94650e+01 8.94750e+01 8.94850e+01 8.94950e+01 8.95050e+01 8.95150e+01
 9.07250e+01 9.07350e+01 9.07450e+01 9.07550e+01 9.07650e+01 9.07750e+01
 9.19850e+01 9.19950e+01 9.20050e+01 9.20150e+01 9.20250e+01 9.20350e+01
 9.32450e+01 9.32550e+01 9.32650e+01 9.32750e+01 9.32850e+01 9.32950e+01
 9.45050e+01 9.45150e+01 9.45250e+01 9.45350e+01 9.45450e+01 9.45550e+01
 9.57650e+01 9.57750e+01 9.57850e+01 9.57950e+01 9.58050e+01 9.58150e+01
 9.70250e+01 9.70350e+01 9.70450e+01 9.70550e+01 9.70650e+01 9.70750e+01
 9.82850e+01 9.82950e+01 9.83050e+01 9.83150e+01 9.83250e+01 9.83350e+01
 9.95450e+01 9.95550e+01 9.95650e+01 9.95750e+01 9.95850e+01 9.95950e+01
 1.00805e+02 1.00815e+02 1.00825e+02 1.00835e+02 1.00845e+02 1.00855e+02
 1.02065e+02 1.02075e+02 1.02085e+02 1.02095e+02 1.02105e+02 1.02115e+02
 1.03325e+02 1.03335e+02 1.03345e+02 1.03355e+02 1.03365e+02 1.03375e+02
 1.04585e+02 1.04595e+02 1.04605e+02 1.04615e+02 1.04625e+02 1.04635e+02
 1.05845e+02 1.05855e+02 1.05865e+02 1.05875e+02 1.05885e+02 1.05895e+02
 1.07105e+02 1.07115e+02 1.07125e+02 1.07135e+02 1.07145e+02 1.07155e+02
 1.08365e+02 1.08375e+02 1.08385e+02 1.08395e+02 1.08405e+02 1.08415e+02
 1.09625e+02 1.09635e+02 1.09645e+02 1.09655e+02 1.09665e+02 1.09675e+02
 1.10885e+02 1.10895e+02 1.10905e+02 1.10915e+02 1.10925e+02 1.10935e+02
 1.12145e+02 1.12155e+02 1.12165e+02 1.12175e+02 1.12185e+02 1.12195e+02
 1.13405e+02 1.13415e+02 1.13425e+02 1.13435e+02 1.13445e+02 1.13455e+02
 1.14665e+02 1.14675e+02 1.14685e+02 1.14695e+02 1.14705e+02 1.14715e+02
 1.15925e+02 1.15935e+02 1.15945e+02 1.15955e+02 1.15965e+02 1.15975e+02
 1.17185e+02 1.17195e+02 1.17205e+02 1.17215e+02 1.17225e+02 1.17235e+02
 1.18445e+02 1.18455e+02 1.18465e+02 1.18475e+02 1.18485e+02 1.18495e+02
 1.19705e+02 1.19715e+02 1.19725e+02 1.19735e+02 1.19745e+02 1.19755e+02
 1.20965e+02 1.20975e+02 1.20985e+02 1.20995e+02 1.21005e+02 1.21015e+02
 1.22225e+02 1.22235e+02 1.22245e+02 1.22255e+02 1.22265e+02 1.22275e+02
 1.23485e+02 1.23495e+02 1.23505e+02 1.23515e+02 1.23525e+02 1.23535e+02
 1.24745e+02 1.24755e+02 1.24765e+02 1.24775e+02 1.24785e+02 1.24795e+02
 1.26005e+02 1.26015e+02 1.26025e+02 1.26035e+02 1.26045e+02 1.26055e+02
 1.27265e+02 1.27275e+02 1.27285e+02 1.27295e+02 1.27305e+02 1.27315e+02
 1.28525e+02 1.28535e+02 1.28545e+02 1.28555e+02 1.28565e+02 1.28575e+02
 333439 330414 327772 324147
 289268 289557 289643 290878
 181285 176160 171264 166331
 42024.4 42081.4 41714.7 41772.3
 40109.9 40355 40436.3 40802.9
 25050.1 25006.6 24482.5 24408.9
 1705.24 1737.87 1712.28 1700.76
 1526.08 1518.4 1515.2 1552.31
 1430.74 1407.7 1432.02 1424.98
 1300.21 1332.84 1308.52 1305.32
 1159.44 1193.35 1218.3 1193.99
 1181.19 1103.13 1168.39 1191.43
 1010.99 1058.98 1032.74 1055.78
 969.396 975.154 994.35 945.721
 980.273 1020.58 955.318 946.36
 1012.27 1067.29 973.235 895.171
 982.833 941.241 945.081 966.196
 1050.66 1038.5 1045.54 964.277
 1151.76 1070.49 1014.19 1100.57
 1085.85 1112.09 1163.27 1117.2
 1177.35 1158.16 1212.54 1181.83
 1196.55 1223.42 1279.73 1149.2
 1249.02 1362.91 1229.18 1336.04
 1394.91 1355.23 1404.5 1358.43
 1409.62 1456.33 1352.03 1458.89
 1436.5 1417.3 1391.07 1417.94
 1387.87 1396.19 1431.38 1435.86
 1352.03 1271.41 1326.44 1362.27
 1312.36 1345.64 1295.09 1246.46
 1252.86 1209.98 1190.15 1181.19
 1145.36 1096.73 1042.34 1188.23
 1107.61 977.074 1030.82 991.151
 913.087 921.406 900.29 958.518
 2451.32 2271.52 2332.31 2183.86
 694.894 819.667 776.796 756.96
 731.366 704.491 733.925 717.929
 704.491 706.411 704.491 726.247
 712.17 705.771 684.656 691.054
 653.942 616.83 631.547 691.694
 639.225 690.414 642.424 603.393
 610.431 583.557 608.512 588.676
 573.319 593.155 607.872 607.872
 588.036 632.187 601.473 602.753
 4340.84 4589.75 4970.47 5433.09
 623.229 600.193 637.946 605.312
 541.966 549.644 520.21 540.686
 549.644 528.529 575.239 542.606
 531.728 541.326 541.966 579.718
 531.088 504.214 524.049 529.808
 521.49 530.448 530.448 529.168
 510.612 545.805 515.091 544.525
 509.973 540.686 506.133 508.053
 3343.93 3386.81 3437.99 3462.95
 560.522 545.165 534.287 487.577
 513.812 508.693 494.616 495.256
 503.574 558.602 498.455 479.899
 548.364 556.043 538.766 520.85
 483.738 530.448 505.493 488.217
 490.776 500.375 502.934 520.85
 512.532 495.895 497.175 507.413
 520.85 517.651 536.847 543.245
 547.085 553.483 545.805 522.13
 609.152 584.197 598.274 591.235
 728.806 733.285 707.051 707.691
 1138.96 1154.96 1093.53 1100.57
 3518.62 3652.35 3790.56 4034.35
 655059 451683 309880 211418
 1092.25 1036.58 1071.13 1025.7
 650.743 650.103 657.781 627.708
 538.766 525.329 526.609 543.885
 522.13 470.301 454.304 451.105
 442.787 454.944 445.346 504.214
 446.626 449.185 433.189 430.629
 425.51 397.356 417.832 416.552
 422.311 390.958 408.234 417.832
 390.318 385.839 406.314 380.72
 397.356 410.793 396.077 374.961
 396.077 405.675 353.845 365.363
 374.961 406.314 375.601 358.964
 402.475 393.517 374.321 364.723
 1497.28 1465.93 1439.06 1443.54
 360.884 360.244 375.601 395.437
 362.164 358.964 372.401 351.926
 354.485 380.08 387.118 344.887
 374.321 350.006 326.971 355.765
 316.093 351.286 362.803 337.849
 362.164 344.887 398.636 366.643
 344.887 323.772 350.646 339.768
 325.051 332.73 342.328 341.688
 334.649 357.685 338.489 348.087
 369.842 367.922 394.157 373.041
 362.164 364.083 357.045 344.887
 365.363 351.286 382.639 328.251
 360.244 362.164 350.646 346.807
 366.003 350.006 363.443 357.045
 395.437 393.517 404.395 394.797
 405.035 396.716 429.349 399.276
 392.237 419.752 438.308 416.552
 388.398 400.555 417.832 415.272
 408.234 403.755 427.43 422.951
 419.752 431.269 438.308 399.916
 447.266 424.87 428.07 444.706
 429.989 444.066 431.909 415.272
 437.028 400.555 422.311 429.989
 396.077 401.195 384.559 408.234
 424.87 406.954 406.314 392.877
 389.038 392.237 396.077 357.045
 392.237 371.122 347.447 397.996
 350.646 339.128 349.366 389.038
 368.562 344.247 352.566 391.597
 313.534 309.695 338.489 354.485
 314.174 330.81 326.331 325.691
 301.376 318.653 324.412 300.737
 319.293 319.933 317.373 300.097
 291.139 301.376 309.055 296.257
 323.132 276.422 314.814 268.103
 290.499 297.537 312.254 272.582
 399.916 406.954 390.318 369.202
 278.981 266.824 284.74 310.335
 299.457 286.02 307.135 300.097
 281.541 280.901 288.579 299.457
 276.422 321.212 303.296 272.582
 300.097 280.901 268.103 294.338
 290.499 294.978 294.978 291.779
 305.216 309.695 287.299 309.055
 311.614 273.222 308.415 293.058
 291.779 284.1 303.296 293.058
 329.531 305.216 294.338 279.621
 299.457 310.335 300.097 310.335
 328.891 317.373 317.373 265.544
 319.293 307.135 316.093 304.576
 321.852 341.048 316.093 333.37
 348.087 293.058 322.492 357.685
 341.688 332.73 319.933 323.772
 332.73 348.726 350.006 349.366
 353.845 330.81 339.128 375.601
 4263.42 4114.33 4003.64 3785.44
 354.485 350.646 360.244 355.765
 326.971 335.929 353.845 344.887
 363.443 380.72 357.045 356.405
 362.164 358.324 366.003 350.006
 359.604 372.401 350.646 397.996
 368.562 389.038 389.678 364.083
 373.041 360.244 371.762 385.839
 382.639 407.594 412.073 419.752
 382.639 419.752 384.559 386.478
 408.234 398.636 387.758 400.555
 401.835 408.234 413.353 438.947
 445.986 447.906 458.783 423.591
 472.86 426.79 433.829 432.549
 442.147 463.902 425.51 433.189
 483.738 486.937 470.941 485.018
 485.018 506.773 501.014 474.78
 12.405 12.415 12.425 12.435 12.445 12.455 12.465 12.475 12.485 12.495
 14.505 14.515 14.525 14.535 14.545 14.555 14.565 14.575 14.585 14.595
 16.605 16.615 16.625 16.635 16.645 16.655 16.665 16.675 16.685 16.695
 18.705 18.715 18.725 18.735 18.745 18.755 18.765 18.775 18.785 18.795
 20.805 20.815 20.825 20.835 20.845 20.855 20.865 20.875 20.885 20.895
 22.905 22.915 22.925 22.935 22.945 22.955 22.965 22.975 22.985 22.995
 25.005 25.015 25.025 25.035 25.045 25.055 25.065 25.075 25.085 25.095
   32.6036   56.2786  -72.9741   26.8448  -27.5437
    1.89012   81.2333  136.262   42.2016  -35.862
   -3.86868   69.7158   64.5968   92.7509   47.3205
   85.7124   78.6739  117.706  107.468   76.1144
  175.933  117.066  188.731  207.927  234.161
  273.833  246.319  227.123  281.511  250.798
  321.823  321.823  302.627  332.7  353.176
  406.285  423.561  378.771  330.141  385.809
  432.519  523.38  497.146  458.754  456.194
  514.422  505.464  486.268  460.034  486.908
  425.481  476.03  467.072  472.191  493.946
  426.121  357.015  396.047  319.903  434.439
  275.752  261.675  297.508  293.029  281.511
  145.86  214.325  165.696  111.307  257.196
   24.2853  -26.9039   85.7124   48.6002   58.8381
 51.805 51.815 51.825 51.835 51.845 51.855 51.865 51.875 51.885 51.895
 53.905 53.915 53.925 53.935 53.945 53.955 53.965 53.975 53.985 53.995
 56.005 56.015 56.025 56.035 56.045 56.055 56.065 56.075 56.085 56.095
 58.105 58.115 58.125 58.135 58.145 58.155 58.165 58.175 58.185 58.195
 60.205 60.215 60.225 60.235 60.245 60.255 60.265 60.275 60.285 60.295
 -389.707 -396.106 -385.868 -390.347
 -392.907 -327.64 -433.218 -400.585
 -383.309 -340.438 -346.196 -365.392
 -302.686 -307.805 -285.409 -287.329
 -145.919 -129.282 -69.135 -38.4214
  666.07  683.346  650.073  710.221
  7.19304e+06  7.59729e+06  7.96318e+06  8.31381e+06
  630.877  657.752  589.286  595.685
 -206.706 -166.394 -178.552 -164.475
 -368.592 -357.714 -360.913 -332.759
 -425.54 -464.572 -414.662 -417.222
 -464.572 -472.89 -490.806 -454.334
 -467.131 -512.561 -478.649 -520.24
 5.8000e+00 5.8800e+00 5.9600e+00 6.0400e+00 6.1200e+00 6.2000e+00
 1.5880e+01 1.5960e+01 1.6040e+01 1.6120e+01 1.6200e+01 1.6280e+01
 2.5960e+01 2.6040e+01 2.6120e+01 2.6200e+01 2.6280e+01 2.6360e+01
 3.6040e+01 3.6120e+01 3.6200e+01 3.6280e+01 3.6360e+01 3.6440e+01
 4.6120e+01 4.6200e+01 4.6280e+01 4.6360e+01 4.6440e+01 4.6520e+01
 5.6200e+01 5.6280e+01 5.6360e+01 5.6440e+01 5.6520e+01 5.6600e+01
 6.6280e+01 6.6360e+01 6.6440e+01 6.6520e+01 6.6600e+01 6.6680e+01
 7.6360e+01 7.6440e+01 7.6520e+01 7.6600e+01 7.6680e+01 7.6760e+01
 8.6440e+01 8.6520e+01 8.6600e+01 8.6680e+01 8.6760e+01 8.6840e+01
 9.6520e+01 9.6600e+01 9.6680e+01 9.6760e+01 9.6840e+01 9.6920e+01
 1.0660e+02 1.0668e+02 1.0676e+02 1.0684e+02 1.0692e+02 1.0700e+02
 1.1668e+02 1.1676e+02 1.1684e+02 1.1692e+02 1.1700e+02 1.1708e+02
 1.2676e+02 1.2684e+02 1.2692e+02 1.2700e+02 1.2708e+02 1.2716e+02
 2.02700e+03 2.11200e+03 2.07700e+03 2.03200e+03 1.90400e+03 1.97700e+03
 1.79500e+03 1.87100e+03 1.85200e+03 1.94100e+03 1.94800e+03 1.90900e+03
 1.28400e+03 1.26600e+03 1.21300e+03 1.19900e+03 1.42000e+03 2.01100e+03
 9.27000e+02 7.94000e+02 8.41000e+02 8.10000e+02 7.87000e+02 7.96000e+02
 8.30000e+02 7.68000e+02 8.31000e+02 7.67000e+02 8.24000e+02 7.87000e+02
 8.60000e+02 8.33000e+02 7.93000e+02 7.81000e+02 8.45000e+02 7.99000e+02
 2.22300e+03 1.41700e+03 9.69000e+02 6.61000e+02 6.48000e+02 5.83000e+02
 6.06000e+02 6.42000e+02 6.82000e+02 6.34000e+02 6.24000e+02 6.09000e+02
 6.62000e+02 7.09000e+02 6.87000e+02 7.29000e+02 6.87000e+02 6.98000e+02
 5.12000e+02 5.01000e+02 4.92000e+02 5.15000e+02 5.23000e+02 5.48000e+02
 5.26000e+02 5.41000e+02 5.45000e+02 5.44000e+02 5.67000e+02 5.65000e+02
 6.85000e+02 6.93000e+02 6.56000e+02 6.40000e+02 6.76000e+02 6.69000e+02
 13.   13.08 13.16 13.24 13.32 13.4  13.48 13.56 13.64 13.72 13.8  13.88
  201.387  109.387  200.387  203.387  238.387
  705.387  752.387  615.387  619.387  711.387
 59.64 59.72 59.8  59.88 59.96]","[-457.613 -569.613 -474.613 -524.613
 -279.613 -236.613 -386.613 -296.613
  11.44  11.52  11.6   11.68  11.76  11.84  11.92  12.    12.08  12.16
  28.24  28.32  28.4   28.48  28.56  28.64  28.72  28.8   28.88  28.96
  45.04  45.12  45.2   45.28  45.36  45.44  45.52  45.6   45.68  45.76
  61.84  61.92  62.    62.08  62.16  62.24  62.32  62.4   62.48  62.56
  78.64  78.72  78.8   78.88  78.96  79.04  79.12  79.2   79.28  79.36
  95.44  95.52  95.6   95.68  95.76  95.84  95.92  96.    96.08  96.16
 112.24 112.32 112.4  112.48 112.56 112.64 112.72 112.8  112.88 112.96
 9.09086e+05 9.17857e+05 9.16191e+05 8.98435e+05 8.65502e+05 8.17027e+05
 2.70200e+03 2.63800e+03 2.78200e+03 2.65100e+03 2.69800e+03 2.72400e+03
 3.42600e+03 3.30300e+03 3.42000e+03 3.38400e+03 3.34300e+03 3.51500e+03
 2.38700e+03 3.02500e+03 4.38300e+03 5.76400e+03 7.13800e+03 7.85700e+03
 1.62900e+03 1.47300e+03 1.56700e+03 1.57500e+03 1.59100e+03 1.52700e+03
 1.65500e+03 1.58000e+03 1.62100e+03 1.65600e+03 1.53800e+03 1.69300e+03
 1.03900e+03 1.12000e+03 1.03300e+03 1.01000e+03 1.06400e+03 1.04100e+03
 1.26800e+03 1.12900e+03 9.61000e+02 9.66000e+02 9.36000e+02 9.26000e+02
 1.23000e+03 1.24700e+03 1.27200e+03 1.34500e+03 1.29300e+03 1.46500e+03
 1.00400e+03 9.18000e+02 9.94000e+02 9.41000e+02 9.60000e+02 9.04000e+02
 7.97000e+02 9.63000e+02 1.03000e+03 1.07800e+03 1.22900e+03 1.25900e+03
 8.69000e+02 8.89000e+02 8.13000e+02 8.56000e+02 8.79000e+02 8.10000e+02
 1.10500e+03 9.88000e+02 1.04300e+03 1.06100e+03 1.03800e+03 1.05300e+03
 19.68 19.76 19.84 19.92 20.   20.08 20.16 20.24 20.32 20.4  20.48 20.56
 1165.03 1222.03 1158.03 1159.03 1397.03
 1232.03 1211.03 1266.03 1289.03 1157.03
 61.84 61.92 62.  ]","[ 825.03  907.03  916.03  736.03
   5.03   5.09   5.15   5.21   5.27   5.33   5.39   5.45   5.51   5.57
  17.63  17.69  17.75  17.81  17.87  17.93  17.99  18.05  18.11  18.17
  30.23  30.29  30.35  30.41  30.47  30.53  30.59  30.65  30.71  30.77
  42.83  42.89  42.95  43.01  43.07  43.13  43.19  43.25  43.31  43.37
  55.43  55.49  55.55  55.61  55.67  55.73  55.79  55.85  55.91  55.97
  68.03  68.09  68.15  68.21  68.27  68.33  68.39  68.45  68.51  68.57
  80.63  80.69  80.75  80.81  80.87  80.93  80.99  81.05  81.11  81.17
  93.23  93.29  93.35  93.41  93.47  93.53  93.59  93.65  93.71  93.77
 105.83 105.89 105.95 106.01 106.07 106.13 106.19 106.25 106.31 106.37
 118.43 118.49 118.55 118.61 118.67 118.73 118.79 118.85 118.91 118.97
 142197. 139931. 134322. 130739. 125682. 120612. 114873. 109846. 104326.
   3376.   3316.   3416.   3355.   3514.   3414.   3478.   3461.   3468.
   3032.   3036.   3000.   2936.   3056.   3002.   2998.   2814.   2782.
   1738.   1838.   1790.   1771.   1811.   1892.   1753.   1970.   1783.
   1733.   1826.   1719.   1870.   1901.   2415.   2954.   3837.   4985.
  10656.  14859.  18672.  19337.  17430.  13948.  10202.   7223.   7395.
   1193.   1179.   1218.   1247.   1189.   1254.   1161.   1194.   1183.
   2442.   2460.   2474.   2596.   2649.   2661.   2644.   2767.   2796.
   1199.   1131.   1148.   1137.   1167.   1127.   1173.   1223.   1165.
   1026.   1007.   1013.   1124.   1111.   1118.   1204.   1121.   1133.
   1247.   1244.   1207.   1259.   1236.   1217.   1213.   1173.   1270.
   1712.]","[13.0, 33.0]","[59.0, 64.0]",26975.7,171.322,20.1092,0.0411083,6.02659,0.0480616,2096.81,37.0103,2.58292,331,"[13.01 13.07 13.13 13.19 13.25 13.31 13.37 13.43 13.49 13.55 13.61 13.67
 28.13 28.19 28.25 28.31 28.37 28.43 28.49 28.55 28.61 28.67 28.73 28.79
 1485.19 1616.19 1525.19 1726.19 1589.19
 1530.19 1522.19 1608.19 1443.19 1482.19
  443.191  470.191  281.191  398.191  420.191
 -514.809 -523.809 -418.809 -502.809
   7.84   7.92   8.     8.08   8.16   8.24   8.32   8.4    8.48   8.56
  24.64  24.72  24.8   24.88  24.96  25.04  25.12  25.2   25.28  25.36
  41.44  41.52  41.6   41.68  41.76  41.84  41.92  42.    42.08  42.16
  58.24  58.32  58.4   58.48  58.56  58.64  58.72  58.8   58.88  58.96
  75.04  75.12  75.2   75.28  75.36  75.44  75.52  75.6   75.68  75.76
  91.84  91.92  92.    92.08  92.16  92.24  92.32  92.4   92.48  92.56
 108.64 108.72 108.8  108.88 108.96 109.04 109.12 109.2  109.28 109.36
 125.44 125.52 125.6  125.68 125.76 125.84 125.92 126.   126.08 126.16
   2593.   2778.   2675.   2662.   2594.   2668.   2640.   2476.   2558.
   1917.   1855.   1840.   1845.   1952.   1887.   2007.   1936.   2037.
   1719.   1596.   1447.   1442.   1322.   1363.   1244.   1325.   1220.
   1156.   1163.   1137.   1177.   1132.   1157.   1173.   1199.   1152.
   2779.   2670.   2431.   1999.   1461.   1144.   1012.   1010.    969.
   1443.   1408.   1461.   1467.   1243.   1308.   1291.   1280.   1196.
    805.    806.    854.    880.    923.    963.   1076.   1188.   1324.
   1091.   1087.   1004.   1132.   1048.   1105.   1168.   1121.   1040.
 24.56 24.64 24.72 24.8  24.88 24.96 25.04 25.12 25.2  25.28 25.36 25.44
 1612.66 1644.66 1587.66 1658.66 1562.66
  584.663  599.663  628.663  619.663  625.663
  -385.337  -425.337  -464.337  -402.337
 21.32 21.4  21.48 21.56 21.64 21.72 21.8  21.88 21.96 22.04 22.12 22.2
 41.48 41.56 41.64 41.72 41.8  41.88 41.96 42.04 42.12 42.2  42.28 42.36
 61.64 61.72 61.8  61.88 61.96 62.04 62.12 62.2  62.28 62.36 62.44 62.52
 81.8  81.88 81.96 82.04 82.12 82.2  82.28 82.36 82.44 82.52 82.6  82.68
   3038.   2982.   3014.   3210.   3157.   3083.   3066.   3100.   2803.
   2149.   2219.   2138.   2200.   2109.   2168.   2086.   2148.   2192.
   1254.   1338.   1311.   1314.   1206.   1307.   1513.   1406.   1425.
   1864.   1891.   1875.   1872.   1901.   1908.   1884.   1854.   1794.
    896.    940.    878.    948.    926.    961.    987.    972.    884.
   4649.   4393.   4287.   4031.   4046.   3839.   3666.   3484.   3399.
 29.4  29.48 29.56 29.64 29.72 29.8  29.88 29.96]","[ 884.075  861.075  872.075  931.075  802.075
 1109.07 1028.07 1040.07 1111.07 1041.07
 66.84 66.92 67.  ]","[-581.925 -617.925 -590.925 -610.925
   9.04   9.12   9.2    9.28   9.36   9.44   9.52   9.6    9.68   9.76
  25.84  25.92  26.    26.08  26.16  26.24  26.32  26.4   26.48  26.56
  42.64  42.72  42.8   42.88  42.96  43.04  43.12  43.2   43.28  43.36
  59.44  59.52  59.6   59.68  59.76  59.84  59.92  60.    60.08  60.16
  76.24  76.32  76.4   76.48  76.56  76.64  76.72  76.8   76.88  76.96
  93.04  93.12  93.2   93.28  93.36  93.44  93.52  93.6   93.68  93.76
 109.84 109.92 110.   110.08 110.16 110.24 110.32 110.4  110.48 110.56
 126.64 126.72 126.8  126.88 126.96 127.04 127.12 127.2  127.28 127.36
   5328.   5402.   5283.   5262.   5421.   5362.   5377.   5481.   5321.
   3526.   3637.   3578.   3587.   3704.   3576.   3695.   3512.   3289.
   2751.   2763.   2728.   2737.   2631.   2690.   2701.   2570.   2542.
   1968.   2012.   1919.   2098.   1989.   2111.   2033.   1950.   2133.
   1995.   1988.   2018.   2003.   2017.   1959.   1940.   1845.   2025.
   1852.   1948.   1859.   1927.   1843.   1773.   1815.   1797.   1803.
   2191.   2242.   2097.   2145.   2142.   1925.   1834.   1691.   1631.
   2233.   2298.   2267.   2406.   2600.   4398.   8152.  12416.  15971.
 1961.48 2003.48 2036.48 2088.48 2080.48
 1281.48 1246.48 1227.48 1276.48 1284.48
 89.68 89.76 89.84 89.92 90.   90.08 90.16 90.24 90.32 90.4  90.48 90.56
  22903.5  35223.5  48753.5  62585.5
 -801.518 -971.518 -993.518 -1018.52
  17.24  17.32  17.4   17.48  17.56  17.64  17.72  17.8   17.88  17.96
  34.04  34.12  34.2   34.28  34.36  34.44  34.52  34.6   34.68  34.76
  50.84  50.92  51.    51.08  51.16  51.24  51.32  51.4   51.48  51.56
  67.64  67.72  67.8   67.88  67.96  68.04  68.12  68.2   68.28  68.36
  84.44  84.52  84.6   84.68  84.76  84.84  84.92  85.    85.08  85.16
 101.24 101.32 101.4  101.48 101.56 101.64 101.72 101.8  101.88 101.96
 118.04 118.12 118.2  118.28 118.36 118.44 118.52 118.6  118.68 118.76
 4.990000e+03 5.087000e+03 5.141000e+03 5.290000e+03 5.311000e+03
 9.716000e+03 1.190200e+04 1.398800e+04 1.566400e+04 1.873400e+04
 4.114000e+03 4.170000e+03 4.121000e+03 4.132000e+03 3.938000e+03
 3.045000e+03 3.126000e+03 3.018000e+03 3.118000e+03 3.002000e+03
 2.753000e+03 2.854000e+03 2.828000e+03 2.724000e+03 2.701000e+03
 2.667000e+03 2.683000e+03 2.658000e+03 2.641000e+03 2.654000e+03
 2.671000e+03 2.730000e+03 2.711000e+03 2.741000e+03 2.825000e+03
 5.485000e+03 8.883000e+03 1.320800e+04 1.695800e+04 1.984600e+04
 1.860000e+03 1.793000e+03 1.789000e+03 1.724000e+03 1.816000e+03
 3.620000e+03 3.784000e+03 3.693000e+03 3.895000e+03 3.945000e+03
 2.304000e+03 2.314000e+03 2.289000e+03 2.185000e+03 2.339000e+03
 1.614000e+03 1.541000e+03 1.653000e+03 1.659000e+03 1.626000e+03
 1.539000e+03 1.735000e+03 1.559000e+03 1.727000e+03 1.725000e+03
 1.981000e+03 1.853000e+03 1.966000e+03 1.967000e+03 1.968000e+03
 2.412000e+03 2.701000e+03 3.354000e+03 4.099000e+03 5.210000e+03
  998.005  907.005 1064  956.005  897.005
"MSS dt (7-129, 11w).csv",11.0,"[  7.04   7.12   7.2    7.28   7.36   7.44   7.52   7.6    7.68   7.76
  23.84  23.92  24.    24.08  24.16  24.24  24.32  24.4   24.48  24.56
  40.64  40.72  40.8   40.88  40.96  41.04  41.12  41.2   41.28  41.36
  57.44  57.52  57.6   57.68  57.76  57.84  57.92  58.    58.08  58.16
  74.24  74.32  74.4   74.48  74.56  74.64  74.72  74.8   74.88  74.96
  91.04  91.12  91.2   91.28  91.36  91.44  91.52  91.6   91.68  91.76
 107.84 107.92 108.   108.08 108.16 108.24 108.32 108.4  108.48 108.56
 124.64 124.72 124.8  124.88 124.96 125.04 125.12 125.2  125.28 125.36
 15866. 19096. 24195. 30890. 37114. 44022. 48715. 48113. 43137. 34850.
  2735.  2752.  2785.  2727.  2716.  2692.  2789.  2714.  2794.  2718.
  2702.  2616.  2757.  2736.  2630.  2591.  2814.  2727.  2697.  2766.
 11811. 14474. 16257. 17725. 19875. 21727. 22644. 21725. 18650. 14885.
  5794.  5992.  6376.  6702.  6662.  6816.  7157.  7584.  7952.  8055.
  1776.  1649.  1678.  1785.  1753.  1679.  1659.  1832.  1588.  1617.
  2150.  2043.  2119.  2059.  2102.  2127.  2112.  2157.  2164.  2101.
 1617.49 1712.49 1543.49 1456.49 1272.49
  5365.49  7765.49  9741.49 12449.5
  18.44  18.52  18.6   18.68  18.76  18.84  18.92  19.    19.08  19.16
  35.24  35.32  35.4   35.48  35.56  35.64  35.72  35.8   35.88  35.96
  52.04  52.12  52.2   52.28  52.36  52.44  52.52  52.6   52.68  52.76
  68.84  68.92  69.    69.08  69.16  69.24  69.32  69.4   69.48  69.56
  85.64  85.72  85.8   85.88  85.96  86.04  86.12  86.2   86.28  86.36
 102.44 102.52 102.6  102.68 102.76 102.84 102.92 103.   103.08 103.16
 119.24 119.32 119.4  119.48 119.56 119.64 119.72 119.8  119.88 119.96
  3755.  3942.  4019.  3872.  3902.  3903.  3793.  4047.  3971.  3978.
  2959.  2877.  2958.  2913.  2903.  2873.  3006.  3059.  2932.  3005.
  2547.  2528.  2580.  2494.  2410.  2435.  2455.  2417.  2446.  2395.
  2008.  1956.  1963.  2014.  2003.  1954.  2084.  1961.  1935.  1902.
  2203.  2225.  2254.  2335.  2402.  2275.  2311.  2256.  2306.  2279.
  1915.  1830.  1897.  1754.  1863.  1752.  1818.  1895.  1829.  1819.
  2180.  2143.  1987.  2034.  1921.  1938.  1938.  1992.  1974.  2034.
 1633.01 1720.01 1669.01 1550.01 1737.01
 1397.01 1367.01 1368.01 1258.01 1299.01
  10.64  10.72  10.8   10.88  10.96  11.04  11.12  11.2   11.28  11.36
  27.44  27.52  27.6   27.68  27.76  27.84  27.92  28.    28.08  28.16
  44.24  44.32  44.4   44.48  44.56  44.64  44.72  44.8   44.88  44.96
  61.04  61.12  61.2   61.28  61.36  61.44  61.52  61.6   61.68  61.76
  77.84  77.92  78.    78.08  78.16  78.24  78.32  78.4   78.48  78.56
  94.64  94.72  94.8   94.88  94.96  95.04  95.12  95.2   95.28  95.36
 111.44 111.52 111.6  111.68 111.76 111.84 111.92 112.   112.08 112.16
 128.24 128.32 128.4  128.48 128.56 128.64 128.72 128.8  128.88 128.96]","[ 3701.  3561.  3590.  3524.  3827.  3663.  3714.  3504.  3633.  3642.
  4061.  4138.  4000.  4133.  4031.  4091.  3987.  3974.  4048.  3836.
  2656.  2485.  2398.  2404.  2483.  2412.  2445.  2386.  2487.  2416.
  2627.  2569.  2478.  2468.  2622.  2606.  2526.  2461.  2520.  2571.
  1854.  1844.  1839.  1789.  1856.  1737.  1826.  1844.  1757.  1840.
  2988.  2961.  2899.  2874.  2743.  2872.  2862.  2901.  2880.  2874.
  1820.  1842.  1727.  1745.  1831.  1804.  1719.  1790.  1885.  1877.
  2408.  2426.  2418.  2412.  2399.  2360.  2458.  2535.  2368.  2445.
 2109.73 2040.73 1938.73 1979.73 2040.73
 19751.7 25236.7 31047.7 37368.7
  21.24  21.32  21.4   21.48  21.56  21.64  21.72  21.8   21.88  21.96
  38.04  38.12  38.2   38.28  38.36  38.44  38.52  38.6   38.68  38.76
  54.84  54.92  55.    55.08  55.16  55.24  55.32  55.4   55.48  55.56
  71.64  71.72  71.8   71.88  71.96  72.04  72.12  72.2   72.28  72.36
  88.44  88.52  88.6   88.68  88.76  88.84  88.92  89.    89.08  89.16
 105.24 105.32 105.4  105.48 105.56 105.64 105.72 105.8  105.88 105.96
 122.04 122.12 122.2  122.28 122.36 122.44 122.52 122.6  122.68 122.76
  3950.  3961.  3920.  3979.  4035.  3968.  3979.  4045.  4133.  4018.
  2459.  2437.  2460.  2527.  2512.  2454.  2477.  2411.  2478.  2425.
  2420.  2405.  2368.  2398.  2373.  2440.  2463.  2409.  2474.  2472.
  1733.  1809.  1849.  1730.  1775.  1689.  1727.  1666.  1670.  1736.
  3194.  3223.  3248.  3254.  3333.  3467.  3519.  3657.  3929.  3917.
  1710.  1829.  1869.  1727.  1830.  1690.  1810.  1750.  1862.  1747.
  2160.  2259.  2275.  2253.  2365.  2279.  2310.  2361.  2407.  2403.
 2695.18 2570.18 2511.18 2695.18 2654.18
  2899.18  2939.18  2889.18  3146.18  4776.18
  22.24  22.32  22.4   22.48  22.56  22.64  22.72  22.8   22.88  22.96
  39.04  39.12  39.2   39.28  39.36  39.44  39.52  39.6   39.68  39.76
  55.84  55.92  56.    56.08  56.16  56.24  56.32  56.4   56.48  56.56
  72.64  72.72  72.8   72.88  72.96  73.04  73.12  73.2   73.28  73.36
  89.44  89.52  89.6   89.68  89.76  89.84  89.92  90.    90.08  90.16
 106.24 106.32 106.4  106.48 106.56 106.64 106.72 106.8  106.88 106.96
 123.04 123.12 123.2  123.28 123.36 123.44 123.52 123.6  123.68 123.76
  3674.  3724.  3744.  3735.  3751.  3772.  3709.  3703.  3706.  3676.
  2375.  2313.  2323.  2314.  2284.  2164.  2304.  2325.  2339.  2230.
  2481.  2454.  2453.  2499.  2462.  2519.  2463.  2500.  2591.  2471.
  1751.  1639.  1657.  1655.  1617.  1737.  1497.  1736.  1733.  1701.
  2912.  2948.  2971.  3041.  3037.  3023.  3037.  3102.  3114.  3193.
  1877.  1884.  1681.  1723.  1758.  1818.  1736.  1861.  1749.  1724.
  2397.  2279.  2297.  2395.  2410.  2372.  2442.  2254.  2295.  2407.
 1404.81 1341.81 1335.81 1338.81 1308.81
 21140.8 25876.8 30017.8 34601.8
  23.24  23.32  23.4   23.48  23.56  23.64  23.72  23.8   23.88  23.96
  40.04  40.12  40.2   40.28  40.36  40.44  40.52  40.6   40.68  40.76
  56.84  56.92  57.    57.08  57.16  57.24  57.32  57.4   57.48  57.56
  73.64  73.72  73.8   73.88  73.96  74.04  74.12  74.2   74.28  74.36
  90.44  90.52  90.6   90.68  90.76  90.84  90.92  91.    91.08  91.16
 107.24 107.32 107.4  107.48 107.56 107.64 107.72 107.8  107.88 107.96
 124.04 124.12 124.2  124.28 124.36 124.44 124.52 124.6  124.68 124.76
  3320.  3442.  3378.  3407.  3491.  3390.  3328.  3290.  3316.  3340.
  2234.  2074.  2198.  2202.  2221.  2192.  2131.  2174.  2176.  2120.
  2525.  2491.  2570.  2511.  2552.  2603.  2533.  2455.  2511.  2518.
  1676.  1615.  1463.  1584.  1735.  1550.  1572.  1664.  1549.  1637.
  2600.  2658.  2529.  2558.  2585.  2524.  2565.  2527.  2590.  2567.
  1850.  1713.  1641.  1770.  1767.  1782.  1795.  1809.  1743.  1680.
  2361.  2305.  2321.  2342.  2417.  2356.  2392.  2431.  2514.  2541.
 331.544 228.544 295.544 396.544 310.544
 -16.4563  26.5437 135.544  30.5437  38.5437
  15.44  15.52  15.6   15.68  15.76  15.84  15.92  16.    16.08  16.16
  32.24  32.32  32.4   32.48  32.56  32.64  32.72  32.8   32.88  32.96
  49.04  49.12  49.2   49.28  49.36  49.44  49.52  49.6   49.68  49.76
  65.84  65.92  66.    66.08  66.16  66.24  66.32  66.4   66.48  66.56
  82.64  82.72  82.8   82.88  82.96  83.04  83.12  83.2   83.28  83.36
  99.44  99.52  99.6   99.68  99.76  99.84  99.92 100.   100.08 100.16
 116.24 116.32 116.4  116.48 116.56 116.64 116.72 116.8  116.88 116.96
  3019.  2996.  2963.  2935.  2956.  2892.  3009.  2950.  2988.  3008.
  2544.  2484.  2480.  2412.  2418.  2481.  2441.  2418.  2398.  2455.
  2032.  2133.  1963.  2070.  2136.  2087.  2004.  1964.  2135.  2178.
  1780.  1752.  1716.  1761.  1884.  1704.  1688.  1800.  1668.  1649.
  2046.  2152.  2102.  2195.  2216.  2212.  2159.  2174.  2217.  2183.
  2147.  2197.  2728.  3935.  6200.  8723. 11627. 14213. 15549. 16328.
  1965.  2078.  2001.  2010.  2044.  2010.  1993.  2072.  1973.  1953.
 26.64 26.72 26.8  26.88 26.96]","[ 64.0771  36.0771  57.0771  -6.92294 110.077
  90.0771 105.077 -52.9229 -70.9229  33.0771
  16.44  16.52  16.6   16.68  16.76  16.84  16.92  17.    17.08  17.16
  33.24  33.32  33.4   33.48  33.56  33.64  33.72  33.8   33.88  33.96
  50.04  50.12  50.2   50.28  50.36  50.44  50.52  50.6   50.68  50.76
  66.84  66.92  67.    67.08  67.16  67.24  67.32  67.4   67.48  67.56
  83.64  83.72  83.8   83.88  83.96  84.04  84.12  84.2   84.28  84.36
 100.44 100.52 100.6  100.68 100.76 100.84 100.92 101.   101.08 101.16
 117.24 117.32 117.4  117.48 117.56 117.64 117.72 117.8  117.88 117.96
  2821.  2912.  2812.  2801.  2895.  2936.  2968.  2932.  2874.  2922.
  2462.  2479.  2330.  2301.  2236.  2257.  2271.  2225.  2241.  2255.
  2055.  2058.  2105.  1977.  2191.  2131.  2077.  2125.  2004.  2059.
  1639.  1626.  1740.  1608.  1626.  1634.  1632.  1579.  1650.  1513.
  2340.  2299.  2285.  2372.  2384.  2301.  2315.  2384.  2445.  2391.
  1841.  1923.  1929.  2059.  2353.  3052.  4337.  6841.  9522. 12001.
  2086.  2041.  2046.  2076.  2115.  2104.  2098.  2098.  2061.  2067.
 301.977 266.977 313.977 292.977 402.977
 33.   33.08 33.16 33.24 33.32 33.4  33.48 33.56 33.64 33.72 33.8  33.88
  19.04  19.12  19.2   19.28  19.36  19.44  19.52  19.6   19.68  19.76
  35.84  35.92  36.    36.08  36.16  36.24  36.32  36.4   36.48  36.56
  52.64  52.72  52.8   52.88  52.96  53.04  53.12  53.2   53.28  53.36
  69.44  69.52  69.6   69.68  69.76  69.84  69.92  70.    70.08  70.16
  86.24  86.32  86.4   86.48  86.56  86.64  86.72  86.8   86.88  86.96
 103.04 103.12 103.2  103.28 103.36 103.44 103.52 103.6  103.68 103.76
 119.84 119.92 120.   120.08 120.16 120.24 120.32 120.4  120.48 120.56
  2805.  2848.  2759.  2832.  2878.  2608.  2799.  2724.  2782.  2775.
  2065.  2045.  1976.  2039.  1988.  1983.  2093.  2079.  1948.  2088.
  2160.  2178.  2284.  2210.  2149.  2180.  2199.  2265.  2236.  2297.
  1320.  1388.  1522.  1465.  1499.  1391.  1453.  1668.  1471.  1359.
  2291.  2376.  2386.  2309.  2331.  2293.  2242.  2317.  2291.  2278.
 13570. 10807.  7726.  5180.  3291.  2249.  2149.  2089.  2047.  1984.
  2207.  2171.  2197.  2228.  2220.  2212.  2228.  2261.  2197.  2231.
  484.842  519.842  546.842  541.842  491.842
   99.8423  146.842   15.8423  122.842  162.842
  2926.84  5809.84  8466.84  11797.8
  26.44  26.52  26.6   26.68  26.76  26.84  26.92  27.    27.08  27.16
  43.24  43.32  43.4   43.48  43.56  43.64  43.72  43.8   43.88  43.96
  60.04  60.12  60.2   60.28  60.36  60.44  60.52  60.6   60.68  60.76
  76.84  76.92  77.    77.08  77.16  77.24  77.32  77.4   77.48  77.56
  93.64  93.72  93.8   93.88  93.96  94.04  94.12  94.2   94.28  94.36
 110.44 110.52 110.6  110.68 110.76 110.84 110.92 111.   111.08 111.16
 127.24 127.32 127.4  127.48 127.56 127.64 127.72 127.8  127.88 127.96
  2124.  2176.  2181.  2236.  2073.  2132.  2210.  2262.  2002.  2132.
  1884.  1830.  1896.  1832.  1935.  1819.  1822.  1726.  1916.  1868.
  2073.  2120.  2057.  2130.  1916.  1959.  1873.  1833.  1953.  1834.
  1518.  1576.  1487.  1592.  1419.  1569.  1484.  1271.  1531.  1395.
  1719.  1699.  1822.  1720.  1763.  1819.  1834.  1797.  1699.  1828.
  1867.  1853.  1845.  1855.  1972.  1855.  1856.  1810.  1799.  1894.
  499.762  496.762  530.762  503.762
  45.7615  14.7615  120.762  109.762
  38.7615 -36.2385 -93.2385  73.7615]",15851.7,312.687,38.2536,0.00760732,0.333987,0.00760732,1953.67,161.251,109.399,46,"[36.04, 36.12, 36.2, 36.28, 36.36, 36.44, 36.52, 36.6, 36.68, 36.76, 36.84, 36.92, 37, 37.08, 37.16, 37.24, 37.32, 37.4, 37.48, 37.56, 37.64, 37.72, 37.8, 37.88, 37.96, 38.04, 38.12, 38.2, 38.28, 38.36, 38.44, 38.52, 38.6, 38.68, 38.76, 38.84, 38.92, 39, 39.08, 39.16, 39.24, 39.32, 39.4, 39.48, 39.56, 39.64, 39.72, 39.8, 39.88]","[-115.238  79.7615 -46.2385  34.7615
  23.44  23.52  23.6   23.68  23.76  23.84  23.92  24.    24.08  24.16
  40.24  40.32  40.4   40.48  40.56  40.64  40.72  40.8   40.88  40.96
  57.04  57.12  57.2   57.28  57.36  57.44  57.52  57.6   57.68  57.76
  73.84  73.92  74.    74.08  74.16  74.24  74.32  74.4   74.48  74.56
  90.64  90.72  90.8   90.88  90.96  91.04  91.12  91.2   91.28  91.36
 107.44 107.52 107.6  107.68 107.76 107.84 107.92 108.   108.08 108.16
 124.24 124.32 124.4  124.48 124.56 124.64 124.72 124.8  124.88 124.96
  2060.  2155.  2090.  2041.  2035.  2032.  2079.  2095.  2044.  2030.
  1758.  1740.  1780.  1796.  1824.  1794.  1817.  1850.  1718.  1724.
  4322.  3696.  2788.  2597.  2128.  2074.  1998.  2077.  2093.  2127.
  1256.  1467.  1415.  1438.  1334.  1346.  1486.  1427.  1422.  1409.
  1803.  1781.  1751.  1756.  1750.  1747.  1644.  1715.  1763.  1762.
  1611.  1722.  1765.  1796.  1770.  1727.  1810.  1891.  1846.  1791.
 23.92 24.   24.08 24.16 24.24 24.32 24.4  24.48 24.56 24.64 24.72 24.8
 -1253.1 -1148.1 -1169.1 -1243.1
 -1526.1 -1575.1 -1581.1 -1584.1
 -1665.1 -1690.1 -1649.1 -1665.1
  18.84  18.92  19.    19.08  19.16  19.24  19.32  19.4   19.48  19.56
  35.64  35.72  35.8   35.88  35.96  36.04  36.12  36.2   36.28  36.36
  52.44  52.52  52.6   52.68  52.76  52.84  52.92  53.    53.08  53.16
  69.24  69.32  69.4   69.48  69.56  69.64  69.72  69.8   69.88  69.96
  86.04  86.12  86.2   86.28  86.36  86.44  86.52  86.6   86.68  86.76
 102.84 102.92 103.   103.08 103.16 103.24 103.32 103.4  103.48 103.56
 119.64 119.72 119.8  119.88 119.96 120.04 120.12 120.2  120.28 120.36
  2089.  2147.  2021.  2134.  2075.  1998.  2112.  2026.  2113.  2004.
  3252.  2314.  2060.  2052.  2064.  2024.  2031.  1925.  1993.  1862.
  2852.  3090.  3115.  3274.  3269.  3281.  3383.  3348.  3371.  3291.
  1300.  1339.  1199.  1276.  1294.  1264.  1241.  1382.  1334.  1336.
  2255.  2101.  1975.  2016.  2028.  2027.  1965.  1972.  1806.  1949.
  1632.  1611.  1617.  1565.  1728.  1614.  1655.  1622.  1655.  1625.
  2541.  2497.  2536.  2517.  2502.  2585.  2565.  2526.  2568.  2574.
 38.76 38.84 38.92 39.  ]","[-492.259 -579.259 -470.259 -512.259
  176.741  189.741  134.741  169.741
  23.7412 -6.25885  14.7412  48.7412
 -44.2588 -70.2588  27.7412  46.7412
  99.7412  52.7412]",579.741,12585.7,1610.26,11527.9,0.122563,0.877437,0.0440349,0.955965,150.753,138.818