File: Data Files/Full/p csv/Processed_XRD_Data_with_some_graphs.csv
,omega,Position,Intensity,amorphous_range,crystalline_range,amorphous_fit_amplitude,amorphous_fit_amplitude_uncertainty,amorphous_fit_mean,amorphous_fit_mean_uncertainty,amorphous_fit_std_dev,amorphous_fit_std_dev_uncertainty,amorphous_fit_background,amorphous_fit_background_uncertainty,amorphous_fit_amorphous_x_range_used,amorphous_fit_amorphous_y_range_used,crystalline_fit_amplitude,crystalline_fit_amplitude_uncertainty,crystalline_fit_mean,crystalline_fit_mean_uncertainty,crystalline_fit_std_dev,crystalline_fit_std_dev_uncertainty,crystalline_fit_background,crystalline_fit_background_uncertainty,crystalline_fit_crystalline_x_range_used,crystalline_fit_crystalline_y_range_used,amorphous_area,crystalline_area,amorphous_percentage,crystalline_percentage,effective_depth
"MSS p (full, 0.01w).csv",0.01,[4.0000e-02 1.2000e-01 2.0000e-01 ... 1.2876e+02 1.2884e+02 1.2892e+02],"[2.281857e+06 1.344978e+06 6.025790e+05 ... 2.020000e+02 2.070000e+02
 13.48 13.56 13.64 13.72 13.8  13.88 13.96 14.04 14.12 14.2  14.28 14.36
 15.4  15.48 15.56 15.64 15.72 15.8  15.88 15.96 16.04 16.12 16.2  16.28
 17.32 17.4  17.48 17.56 17.64 17.72 17.8  17.88 17.96 18.04 18.12 18.2
 19.24 19.32 19.4  19.48 19.56 19.64 19.72 19.8  19.88 19.96 20.04 20.12
 21.16 21.24 21.32 21.4  21.48 21.56 21.64 21.72 21.8  21.88 21.96 22.04
 23.08 23.16 23.24 23.32 23.4  23.48 23.56 23.64 23.72 23.8  23.88 23.96
 25.   25.08 25.16 25.24 25.32 25.4  25.48 25.56 25.64 25.72 25.8  25.88
 411. 420. 436. 393. 398. 406. 445. 452. 441. 464. 427. 441. 405. 407.
 454. 490. 454. 464. 450. 514. 455. 537. 493. 509. 486. 478. 458. 497.
 560. 576. 583. 530. 577. 563. 584. 592. 615. 593. 532. 542. 524. 572.
 582. 590. 591. 568. 582. 572. 575. 570. 552. 546. 595. 574. 567. 560.
 418. 409. 382. 390. 394. 432. 402. 400. 416. 360. 399. 362. 356. 334.
 286. 286. 267. 274. 300. 279. 287. 252. 256. 258. 263. 249. 247. 238.
 31.48 31.56 31.64 31.72 31.8  31.88 31.96 32.04 32.12 32.2  32.28 32.36
 125. 117. 114. 128. 125. 118. 116. 106. 105. 127. 115.]",6145.44,260.118,0.957673,0.0423269,0.054177
 2.080000e+02]","[14.0, 28.0]","[31.0, 32.0]",4942.2,348.915,19.2782,0.0518065,3.93684,0.154158,161.761,18.8122,"[14.04 14.12 14.2  14.28 14.36 14.44 14.52 14.6  14.68 14.76 14.84 14.92
 15.96 16.04 16.12 16.2  16.28 16.36 16.44 16.52 16.6  16.68 16.76 16.84
 17.88 17.96 18.04 18.12 18.2  18.28 18.36 18.44 18.52 18.6  18.68 18.76
 19.8  19.88 19.96 20.04 20.12 20.2  20.28 20.36 20.44 20.52 20.6  20.68
 21.72 21.8  21.88 21.96 22.04 22.12 22.2  22.28 22.36 22.44 22.52 22.6
 23.64 23.72 23.8  23.88 23.96 24.04 24.12 24.2  24.28 24.36 24.44 24.52
 25.56 25.64 25.72 25.8  25.88 25.96 26.04 26.12 26.2  26.28 26.36 26.44
 27.48 27.56 27.64 27.72 27.8  27.88 27.96]","[448. 450. 444. 432. 489. 461. 479. 455. 431. 458. 458. 439. 474. 447.
 518. 519. 544. 475. 514. 516. 523. 507. 552. 550. 535. 530. 572. 608.
 624. 665. 676. 608. 656. 675. 616. 642. 660. 628. 667. 626. 627. 639.
 629. 638. 646. 657. 715. 635. 702. 624. 588. 681. 582. 645. 574. 610.
 464. 476. 491. 463. 450. 479. 422. 397. 428. 404. 346. 367. 410. 377.
 294. 347. 301. 301. 276. 266. 300. 308. 268. 276. 249. 294. 268. 246.
 234. 231. 227. 204. 231. 185. 191.]",54.2466,5.44604,31.3302,0.009105348,0.140249,0.0118178,145.419,6.17514,"[31.   31.08 31.16 31.24 31.32 31.4  31.48 31.56 31.64 31.72 31.8  31.88
"MSS p (full, 0.05w).csv",0.05,[4.0000e-02 1.2000e-01 2.0000e-01 ... 1.2876e+02 1.2884e+02 1.2892e+02],"[2.543620e+06 1.481101e+06 6.607040e+05 ... 2.130000e+02 2.340000e+02
 15.   15.08 15.16 15.24 15.32 15.4  15.48 15.56 15.64 15.72 15.8  15.88
 16.92 17.   17.08 17.16 17.24 17.32 17.4  17.48 17.56 17.64 17.72 17.8
 18.84 18.92 19.   19.08 19.16 19.24 19.32 19.4  19.48 19.56 19.64 19.72
 20.76 20.84 20.92 21.   21.08 21.16 21.24 21.32 21.4  21.48 21.56 21.64
 22.68 22.76 22.84 22.92 23.   23.08 23.16 23.24 23.32 23.4  23.48 23.56
 24.6  24.68 24.76 24.84 24.92 25.   25.08 25.16 25.24 25.32 25.4  25.48
 26.52 26.6  26.68 26.76 26.84 26.92 27.   27.08 27.16 27.24 27.32 27.4
 616. 599. 602. 632. 644. 630. 622. 616. 676. 648. 617. 645. 657. 708.
 746. 777. 762. 830. 808. 759. 731. 813. 780. 833. 837. 839. 783. 800.
 884. 898. 877. 915. 896. 933. 926. 886. 899. 910. 879. 923. 894. 886.
 846. 836. 857. 802. 788. 717. 752. 721. 710. 726. 697. 680. 691. 711.
 543. 529. 532. 509. 518. 512. 525. 490. 478. 496. 474. 479. 488. 500.
 390. 341. 369. 406. 362. 321. 331. 352. 327. 365. 333. 336. 333. 323.
 31.48 31.56 31.64 31.72 31.8  31.88 31.96 32.04 32.12 32.2  32.28 32.36
 272. 241. 241. 225. 186. 203. 190. 206. 208. 206. 207.]",9136.8,578.371,0.936699,0.0633013,0.27163
 2.500000e+02]","[11.0, 30.0]","[30.5, 32.5]",5261.9,266.026,20.0915,0.0668641,3.37542,0.121598,491.967,14.3694,"[11.   11.08 11.16 11.24 11.32 11.4  11.48 11.56 11.64 11.72 11.8  11.88
 12.92 13.   13.08 13.16 13.24 13.32 13.4  13.48 13.56 13.64 13.72 13.8
 14.84 14.92 15.   15.08 15.16 15.24 15.32 15.4  15.48 15.56 15.64 15.72
 16.76 16.84 16.92 17.   17.08 17.16 17.24 17.32 17.4  17.48 17.56 17.64
 18.68 18.76 18.84 18.92 19.   19.08 19.16 19.24 19.32 19.4  19.48 19.56
 20.6  20.68 20.76 20.84 20.92 21.   21.08 21.16 21.24 21.32 21.4  21.48
 22.52 22.6  22.68 22.76 22.84 22.92 23.   23.08 23.16 23.24 23.32 23.4
 24.44 24.52 24.6  24.68 24.76 24.84 24.92 25.   25.08 25.16 25.24 25.32
 26.36 26.44 26.52 26.6  26.68 26.76 26.84 26.92 27.   27.08 27.16 27.24
 28.28 28.36 28.44 28.52 28.6  28.68 28.76 28.84 28.92 29.   29.08 29.16
  617.  622.  656.  687.  612.  658.  683.  684.  668.  659.  675.  681.
  657.  667.  648.  663.  710.  719.  653.  698.  694.  727.  663.  697.
  764.  750.  756.  745.  777.  779.  822.  867.  798.  835.  824.  824.
  930.  970.  936.  922.  951.  958. 1014. 1003. 1022.  985.  989. 1023.
 1083. 1224. 1117. 1061. 1107. 1064. 1108. 1152. 1114. 1083. 1122. 1161.
 1148. 1211. 1152. 1112. 1067. 1100. 1081. 1073. 1037. 1050. 1073.  950.
  884.  855.  885.  813.  813.  791.  777.  755.  749.  719.  729.  781.
  661.  683.  671.  610.  665.  627.  596.  576.  588.  575.  576.  590.
  485.  503.  481.  466.  426.  496.  465.  456.  444.  456.  462.  441.
  373.  371.  368.  354.  409.  402.  373.  380.  389.  360.]",360.489,15.0603,31.3483,0.006478748,0.191883,0.007519419,308.276,10.5426,"[30.52 30.6  30.68 30.76 30.84 30.92 31.   31.08 31.16 31.24 31.32 31.4
 32.44]","[ 334.  399.  335.  342.  332.  340.  448.  616.  797.  935. 1013. 1016.
  276.]",14561.9,952.375,0.934598,0.065402,0.543409
 2.970000e+02]","[12.0, 35.0]","[31.0, 32.5]",7254.85,133.483,21.7675,0.0324022,3.48888,0.0489448,465.704,6.66484,"[12.04, 12.12, 12.2, 12.28, 12.36, 12.44, 12.52, 12.6, 12.68, 12.76, 12.84, 12.92, 13.0, 13.08, 13.16, 13.24, 13.32, 13.4, 13.48, 13.56, 13.64, 13.72, 13.8, 13.88, 13.96, 14.04, 14.12, 14.2, 14.28, 14.36, 14.44, 14.52, 14.6, 14.68, 14.76, 14.84, 14.92, 15, 15.08, 15.16, 15.24, 15.32, 15.4, 15.48, 15.56, 15.64, 15.72, 15.8, 15.88, 15.96, 16.04, 16.12, 16.2, 16.28, 16.36, 16.44, 16.52, 16.6, 16.68, 16.76, 16.84, 16.92, 17, 17.08, 17.16, 17.24, 17.32, 17.4, 17.48, 17.56, 17.64, 17.72, 17.8, 17.88, 17.96, 18.04, 18.12, 18.2, 18.28, 18.36, 18.44, 18.52, 18.6, 18.68, 18.76, 18.84, 18.92, 19, 19.08, 19.16, 19.24, 19.32, 19.4, 19.48, 19.56, 19.64, 19.72, 19.8, 19.88, 19.96, 20.04, 20.12, 20.2, 20.28, 20.36, 20.44, 20.52, 20.6, 20.68, 20.76, 20.84, 20.92, 21, 21.08, 21.16, 21.24, 21.32, 21.4, 21.48, 21.56, 21.64, 21.72, 21.8, 21.88, 21.96, 22.04, 22.12, 22.2, 22.28, 22.36, 22.44, 22.52, 22.6, 22.68, 22.76, 22.84, 22.92, 23, 23.08, 23.16, 23.24, 23.32, 23.4, 23.48, 23.56, 23.64, 23.72, 23.8, 23.88, 23.96, 24.04, 24.12, 24.2, 24.28, 24.36, 24.44, 24.52, 24.6, 24.68, 24.76, 24.84, 24.92, 25, 25.08, 25.16, 25.24, 25.32, 25.4, 25.48, 25.56, 25.64, 25.72, 25.8, 25.88, 25.96, 26.04, 26.12, 26.2, 26.28, 26.36, 26.44, 26.52, 26.6, 26.68, 26.76, 26.84, 26.92, 27, 27.08, 27.16, 27.24, 27.32, 27.4, 27.48, 27.56, 27.64, 27.72, 27.8, 27.88, 27.96, 28.04, 28.12, 28.2, 28.28, 28.36, 28.44, 28.52, 28.6, 28.68, 28.76, 28.84, 28.92, 29, 29.08, 29.16, 29.24, 29.32, 29.4, 29.48, 29.56, 29.64, 29.72, 29.8, 29.88, 29.96, 30.04, 30.12, 30.2, 30.28, 30.36, 30.44, 30.52, 30.6, 30.68, 30.76, 30.84, 30.92, 32.44, 32.52, 32.6, 32.68, 32.76, 32.84, 32.92, 33, 33.08, 33.16, 33.24, 33.32, 33.4, 33.48, 33.56, 33.64, 33.72, 33.8, 33.88, 33.96, 34.04, 34.12, 34.2, 34.28, 34.36, 34.44, 34.52, 34.6, 34.68, 34.76, 34.84, 34.92]","[ 523.  506.  534.  544.  532.  515.  535.  543.  527.  554.  576.  565.
  506.  579.  630.  674.  615.  590.  520.  594.  591.  603.  631.  643.
  670.  629.  648.  686.  703.  687.  740.  668.  711.  720.  786.  731.
  936.  882.  941.  901.  943.  931.  922.  910.  975.  985.  977. 1000.
 1167. 1134. 1174. 1164. 1211. 1149. 1199. 1231. 1171. 1284. 1266. 1306.
 1404. 1377. 1348. 1318. 1364. 1290. 1330. 1466. 1223. 1274. 1243. 1322.
 1092. 1186. 1161. 1106. 1092. 1174. 1137. 1051. 1089. 1087. 1099. 1029.
  936.  952.  926.  938.  955.  971.  915.  887.  840.  902.  851.  797.
  714.  715.  641.  670.  670.  696.  633.  656.  661.  659.  640.  623.
  521.  600.  583.  508.  573.  553.  519.  542.  545.  488.  482.  519.
  440.  394.  469.  421.  448.  426.  442.  469.  419.  436.  446.  409.
  380.  400.  357.  391.  421.]",1099.51,24.4579,31.5381,0.002641205,0.161434,0.003219189,445.232,21.9983,"[31, 31.08, 31.16, 31.24, 31.32, 31.4, 31.48, 31.56, 31.64, 31.72, 31.8, 31.88, 31.96, 32.04, 32.12, 32.2, 32.28, 32.36]","[ 458.  471.  551.  879. 1576. 2419. 2930. 3073. 2727. 1962. 1087.  696.
"MSS p (full, 0.5w).csv",0.5,[4.0000e-02 1.2000e-01 2.0000e-01 ... 1.2876e+02 1.2884e+02 1.2892e+02],"[2.079818e+06 1.255725e+06 5.705110e+05 ... 3.400000e+02 3.220000e+02
  451.  498.  537.  479.  510.  504.  478.  454.  534.  497.  521.  480.
  537.  609.  568.  547.  565.  524.  541.  564.  596.  554.  566.  619.
  703.  697.  676.  678.  713.  722.  713.  762.  729.  801.  722.  741.
  912.  935.  883.  850.  981.  937.  950.  965.  961.  995. 1029.  964.
 1149. 1070. 1096. 1124. 1122. 1085. 1136. 1156. 1199. 1101. 1117. 1134.
 1199. 1141. 1078. 1104. 1165. 1098. 1139. 1133. 1122. 1156. 1218. 1076.
  958.  987.  880.  911.  973.  932.  924.  900.  881.  825.  823.  816.
  795.  824.  815.  723.  738.  721.  712.  727.  681.  739.  668.  632.
  588.  579.  573.  558.  558.  542.  538.  501.  566.  551.  560.  539.
  481.  480.  490.  492.  451.  500.  484.  486.  467.  432.  424.  407.
  410.  370.  350.  403.  371.  373.  384.  370.  391.  412.  416.  407.
 3825. 4106. 3277. 2124.  878.  550.  474.  423.  438.  458.  387.  403.
"MSS p (full, 1w).csv",1,[4.0000e-02 1.2000e-01 2.0000e-01 ... 1.2876e+02 1.2884e+02 1.2892e+02],"[4.336836e+06 2.639410e+06 1.329354e+06 ... 4.550000e+02 4.560000e+02
 13.   13.08 13.16 13.24 13.32 13.4  13.48 13.56 13.64 13.72 13.8  13.88
 14.92 15.   15.08 15.16 15.24 15.32 15.4  15.48 15.56 15.64 15.72 15.8
 16.84 16.92 17.   17.08 17.16 17.24 17.32 17.4  17.48 17.56 17.64 17.72
 18.76 18.84 18.92 19.   19.08 19.16 19.24 19.32 19.4  19.48 19.56 19.64
 20.68 20.76 20.84 20.92 21.   21.08 21.16 21.24 21.32 21.4  21.48 21.56
 22.6  22.68 22.76 22.84 22.92 23.   23.08 23.16 23.24 23.32 23.4  23.48
 24.52 24.6  24.68 24.76 24.84 24.92 25.   25.08 25.16 25.24 25.32 25.4
 26.44 26.52 26.6  26.68 26.76 26.84 26.92 27.   27.08 27.16 27.24 27.32
 28.36 28.44 28.52 28.6  28.68 28.76 28.84 28.92 29.   29.08 29.16 29.24
 30.28 30.36 30.44 30.52 30.6  30.68 30.76 30.84 30.92 31.  ]","[ 834.  789.  846.  817.  818.  818.  801.  825.  803.  866.  866.  820.
  906.  875.  870.  854.  865.  901.  941.  906.  955.  920.  947.  954.
 1028. 1038.  957. 1041. 1058. 1100. 1080. 1156. 1137. 1125. 1106. 1129.
 1381. 1429. 1528. 1486. 1400. 1638. 1458. 1509. 1645. 1688. 1739. 1770.
 1987. 2033. 1985. 2065. 2020. 2044. 2065. 2121. 2170. 2117. 2111. 2124.
 2270. 2327. 2273. 2349. 2215. 2355. 2312. 2219. 2283. 2229. 2163. 2178.
 2102. 2127. 2080. 2060. 2044. 1937. 2085. 2168. 2322. 2414. 2369. 2202.
 1743. 1444. 1683. 1548. 1490. 1342. 1365. 1405. 1393. 1440. 1304. 1271.
 1285. 1219. 1142. 1203. 1107. 1155. 1401. 1244. 1090. 1165. 1085. 1074.
  942.  899.  913.  879.  930.  896.  881.  924.  911.  833.  877.  830.
 33.   33.08 33.16 33.24 33.32 33.4  33.48 33.56 33.64 33.72 33.8  33.88
 9028. 7145. 4430. 1949.  807.  720.  767.  735.  706.  760.  719.  717.
"MSS p (full, 2w).csv",2,[4.0000e-02 1.2000e-01 2.0000e-01 ... 1.2780e+02 1.2788e+02 1.2796e+02],"[2.398973e+06 2.107858e+06 1.081820e+06 ... 5.750000e+02 5.940000e+02
 13.   13.08 13.16 13.24 13.32 13.4  13.48 13.56 13.64 13.72 13.8  13.88
 14.92 15.   15.08 15.16 15.24 15.32 15.4  15.48 15.56 15.64 15.72 15.8
 16.84 16.92 17.   17.08 17.16 17.24 17.32 17.4  17.48 17.56 17.64 17.72
 18.76 18.84 18.92 19.   19.08 19.16 19.24 19.32 19.4  19.48 19.56 19.64
 20.68 20.76 20.84 20.92 21.   21.08 21.16 21.24 21.32 21.4  21.48 21.56
 22.6  22.68 22.76 22.84 22.92 23.   23.08 23.16 23.24 23.32 23.4  23.48
 24.52 24.6  24.68 24.76 24.84 24.92 25.   25.08 25.16 25.24 25.32 25.4
 26.44 26.52 26.6  26.68 26.76 26.84 26.92 27.   27.08 27.16 27.24 27.32
 28.36 28.44 28.52 28.6  28.68 28.76 28.84 28.92 29.   29.08 29.16 29.24
 30.28 30.36 30.44 30.52 30.6  30.68 30.76 30.84 30.92 31.   31.08 31.16
 32.2  32.28 32.36 32.44 32.52 32.6  32.68 32.76 32.84 32.92 33.   33.08
 1007. 1008.  988.  966. 1007. 1005. 1014. 1028.  991. 1043. 1003. 1019.
 1044. 1006. 1092. 1099. 1143. 1137. 1141. 1162. 1117. 1098. 1147. 1189.
 1329. 1472. 1486. 1475. 1382. 1375. 1604. 1545. 1599. 1481. 1646. 1563.
 1844. 2043. 1960. 1961. 2056. 2048. 2095. 2066. 2085. 2103. 2086. 2063.
 2372. 2331. 2407. 2443. 2359. 2400. 2434. 2395. 2417. 2426. 2595. 2483.
 2443. 2436. 2356. 2377. 2384. 2283. 2395. 2309. 2358. 2179. 2314. 2248.
 1967. 1963. 2074. 1906. 1968. 1851. 1911. 1967. 1883. 1866. 1843. 1824.
 2248. 1912. 1586. 1291. 1374. 1446. 1406. 1318. 1262. 1287. 1307. 1274.
 1137. 1090. 1133. 1216. 1133. 1170. 1085. 1128. 1121. 1066. 1031. 1068.
  939.  978. 1015. 1034.  869.  938.  924.  955.  914.  911.  927.  867.
  835.  803.  801.  838.  868.  791.  847.  858.  811.  872.  877.  860.
 53.   53.08 53.16 53.24 53.32 53.4  53.48 53.56 53.64 53.72 53.8  53.88
 54.92 55.   55.08 55.16 55.24 55.32 55.4  55.48 55.56 55.64 55.72 55.8
   641.   677.   671.   703.   665.   715.   664.   649.   759.   929.
  1086.  1207.  1600.  1791.  1833.  1642.  1592.  1339.  1503.  1624.
"MSS p (full, 3w).csv",3,[4.0000e-02 1.2000e-01 2.0000e-01 ... 1.2876e+02 1.2884e+02 1.2892e+02],[ 24368. 138510. 378336. ...    951.    950.    957.],"[14.0, 35.0]","[54.0, 57.0]",29196.3,2533.56,22.0999,0.121005,4.87348,0.264663,1520.23,104.104,"[14.04 14.12 14.2  14.28 14.36 14.44 14.52 14.6  14.68 14.76 14.84 14.92
 15.96 16.04 16.12 16.2  16.28 16.36 16.44 16.52 16.6  16.68 16.76 16.84
 17.88 17.96 18.04 18.12 18.2  18.28 18.36 18.44 18.52 18.6  18.68 18.76
 19.8  19.88 19.96 20.04 20.12 20.2  20.28 20.36 20.44 20.52 20.6  20.68
 21.72 21.8  21.88 21.96 22.04 22.12 22.2  22.28 22.36 22.44 22.52 22.6
 23.64 23.72 23.8  23.88 23.96 24.04 24.12 24.2  24.28 24.36 24.44 24.52
 25.56 25.64 25.72 25.8  25.88 25.96 26.04 26.12 26.2  26.28 26.36 26.44
 27.48 27.56 27.64 27.72 27.8  27.88 27.96 28.04 28.12 28.2  28.28 28.36
 29.4  29.48 29.56 29.64 29.72 29.8  29.88 29.96 30.04 30.12 30.2  30.28
 31.32 31.4  31.48 31.56 31.64 31.72 31.8  31.88 31.96 32.04 32.12 32.2
 33.24 33.32 33.4  33.48 33.56 33.64 33.72 33.8  33.88 33.96 34.04 34.12
 2421. 2462. 2362. 2433. 2486. 2423. 2490. 2533. 2549. 2461. 2471. 2625.
 2795. 2802. 2796. 2819. 2902. 2900. 2842. 2943. 2896. 2967. 3087. 3014.
 3447. 3347. 3353. 3438. 3411. 3446. 3435. 3561. 3642. 3642. 3681. 3626.
 4025. 3911. 4057. 4006. 4011. 4126. 4051. 4003. 4219. 4183. 4076. 4133.
 4021. 4061. 4123. 3943. 3970. 3923. 3916. 3891. 3930. 3871. 3789. 3716.
 3464. 3325. 3290. 3299. 3241. 3364. 3232. 3343. 3203. 3165. 3171. 3134.
 2720. 2736. 2793. 2701. 2639. 2705. 2541. 2676. 2636. 2449. 2602. 2558.
 3781. 2802. 2238. 2284. 2214. 2190. 2165. 2194. 2191. 2158. 2123. 2168.
 2073. 1966. 1987. 2114. 2053. 2044. 2184. 2126. 2074. 2001. 1958. 2020.
 1723. 1763. 1744. 1717. 1792. 1670. 1715. 1626. 1521. 1602. 1500. 1650.
 1614. 1638. 1616. 1614. 1583. 1542. 1556. 1608. 1475. 1513. 1529.]",1310240.433,13318.8,55.8028,0.001371796,0.133489,0.001439758,-6999.67,9066.85,"[54.04 54.12 54.2  54.28 54.36 54.44 54.52 54.6  54.68 54.76 54.84 54.92
 55.96 56.04 56.12 56.2  56.28 56.36 56.44 56.52 56.6  56.68 56.76 56.84
 2.061000e+03 2.119000e+03 2.175000e+03 2.406000e+03 2.483000e+03
 4.842000e+03 6.399000e+03 1.090400e+04 6.153700e+04 7.641480e+05
 8.276170e+05 5.836800e+04 5.350000e+03 3.441000e+03 2.900000e+03
 1.929000e+03 1.838000e+03 1.622000e+03]",59508.7,1289521.404,0.0461479,0.953852,18.4425
 11.96 12.04 12.12 12.2  12.28 12.36 12.44 12.52 12.6  12.68 12.76 12.84
 13.88 13.96 14.04 14.12 14.2  14.28 14.36 14.44 14.52 14.6  14.68 14.76
 15.8  15.88 15.96 16.04 16.12 16.2  16.28 16.36 16.44 16.52 16.6  16.68
 17.72 17.8  17.88 17.96 18.04 18.12 18.2  18.28 18.36 18.44 18.52 18.6
 19.64 19.72 19.8  19.88 19.96 20.04 20.12 20.2  20.28 20.36 20.44 20.52
 21.56 21.64 21.72 21.8  21.88 21.96 22.04 22.12 22.2  22.28 22.36 22.44
 23.48 23.56 23.64 23.72 23.8  23.88 23.96 24.04 24.12 24.2  24.28 24.36
 25.4  25.48 25.56 25.64 25.72 25.8  25.88 25.96 26.04 26.12 26.2  26.28
 27.32 27.4  27.48 27.56 27.64 27.72 27.8  27.88 27.96 28.04 28.12 28.2
 29.24 29.32 29.4  29.48 29.56 29.64 29.72 29.8  29.88 29.96 30.04 30.12
 31.16 31.24 31.32 31.4  31.48 31.56 31.64 31.72 31.8  31.88 31.96 32.04
 33.08 33.16 33.24 33.32 33.4  33.48 33.56 33.64 33.72 33.8  33.88 33.96
 35.   35.08 35.16 35.24 35.32 35.4  35.48 35.56 35.64 35.72 35.8  35.88
 36.92 37.   37.08 37.16 37.24 37.32 37.4  37.48 37.56 37.64 37.72 37.8
 1844. 1868. 1885. 1849. 1783. 1730. 1848. 1813. 1893. 1845. 1889. 1861.
 1966. 1938. 1878. 1929. 1948. 1886. 1868. 1927. 1950. 2002. 1962. 2008.
 2118. 2047. 2197. 2142. 2168. 2257. 2222. 2144. 2241. 2216. 2283. 2265.
 2488. 2524. 2528. 2566. 2565. 2507. 2584. 2650. 2544. 2660. 2601. 2695.
 3071. 3051. 2966. 3147. 3018. 3168. 3100. 3162. 3064. 3213. 3294. 3264.
 3399. 3481. 3260. 3375. 3404. 3383. 3458. 3426. 3318. 3349. 3435. 3361.
 3103. 3043. 3119. 3161. 3167. 2897. 2953. 2901. 3058. 3001. 2894. 2953.
 2497. 2517. 2593. 2442. 2479. 2421. 2385. 2411. 2482. 2348. 2374. 2316.
 2071. 1990. 2048. 2052. 2043. 1997. 2017. 2009. 2028. 2051. 1956. 1997.
 1789. 1744. 1760. 1678. 1705. 1779. 1814. 1757. 1825. 1919. 2331. 3165.
 1505. 1431. 1410. 1583. 1334. 1419. 1418. 1379. 1454. 1425. 1320. 1381.
 1285. 1299. 1244. 1234. 1245. 1250. 1282. 1252. 1279. 1295. 1249. 1236.
 1231. 1163. 1198. 1136. 1152. 1112. 1197. 1157. 1214. 1129. 1129. 1067.
 1151. 1095. 1058. 1111. 1139. 1060. 1079. 1073. 1076. 1093. 1043. 1113.
 57.   57.08 57.16 57.24 57.32 57.4  57.48 57.56 57.64 57.72 57.8  57.88
 58.92 59.   59.08 59.16 59.24 59.32 59.4  59.48 59.56 59.64 59.72 59.8
 60.84 60.92 61.  ]","[ 2807.  2859.  2756.  2698.  2571.  2441.  2244.  2232.  2257.  2171.
  9283. 18968. 30409. 38093. 37229. 27960. 15325.  6643.  2290.  1502.
   968.   959.   968.   922.   884.   918.   830.   962.   849.   866.
   801.   850.   821.]",57603.5,21115.3,0.633437,0.366563,22.6113
 12.96 13.04 13.12 13.2  13.28 13.36 13.44 13.52 13.6  13.68 13.76 13.84
 14.88 14.96 15.04 15.12 15.2  15.28 15.36 15.44 15.52 15.6  15.68 15.76
 16.8  16.88 16.96 17.04 17.12 17.2  17.28 17.36 17.44 17.52 17.6  17.68
 18.72 18.8  18.88 18.96 19.04 19.12 19.2  19.28 19.36 19.44 19.52 19.6
 20.64 20.72 20.8  20.88 20.96 21.04 21.12 21.2  21.28 21.36 21.44 21.52
 22.56 22.64 22.72 22.8  22.88 22.96 23.04 23.12 23.2  23.28 23.36 23.44
 24.48 24.56 24.64 24.72 24.8  24.88 24.96 25.04 25.12 25.2  25.28 25.36
 26.4  26.48 26.56 26.64 26.72 26.8  26.88 26.96 27.04 27.12 27.2  27.28
 28.32 28.4  28.48 28.56 28.64 28.72 28.8  28.88 28.96 29.04 29.12 29.2
 30.24 30.32 30.4  30.48 30.56 30.64 30.72 30.8  30.88 30.96]","[3346. 3371. 3282. 3330. 3305. 3313. 3332. 3331. 3283. 3322. 3290. 3299.
 3451. 3391. 3612. 3519. 3494. 3562. 3497. 3557. 3605. 3595. 3524. 3653.
 3947. 3874. 3967. 4004. 4009. 3925. 4061. 4021. 4082. 4114. 4118. 4029.
 4469. 4513. 4498. 4555. 4557. 4644. 4676. 4834. 4752. 4736. 4773. 4777.
 5349. 5391. 5352. 5600. 5330. 5470. 5565. 5457. 5627. 5629. 5716. 5571.
 5816. 5683. 5929. 5732. 5690. 5852. 5730. 5740. 5729. 5818. 5758. 5772.
 5362. 5384. 5204. 5187. 5191. 5201. 5163. 5104. 5273. 4884. 4912. 4912.
 4465. 4360. 4427. 4294. 4250. 4193. 4147. 4196. 4138. 4204. 4033. 3978.
 3673. 3704. 3628. 3665. 3568. 3524. 3421. 3515. 3503. 3525. 3405. 3447.
 3273. 3058. 3221. 3047. 3150. 3067. 3054. 2959. 3108. 3050. 2926. 2963.
 60.   60.08 60.16 60.24 60.32 60.4  60.48 60.56 60.64 60.72 60.8  60.88
 49296. 45456. 35669. 23032. 12870.  5911.  2877.  2258.  2071.  1919.
"MSS p (full, 6w).csv",6,[  2.04   2.12   2.2  ... 128.76 128.84 128.92],[720345. 646914. 578382. ...   1743.   1650.   1746.],"[13.0, 33.0]","[60.0, 63.0]",26117.2,572.764,21.4003,0.0304082,3.95099,0.0584433,2550.63,27.5818,"[13.   13.08 13.16 13.24 13.32 13.4  13.48 13.56 13.64 13.72 13.8  13.88
 14.92 15.   15.08 15.16 15.24 15.32 15.4  15.48 15.56 15.64 15.72 15.8
 16.84 16.92 17.   17.08 17.16 17.24 17.32 17.4  17.48 17.56 17.64 17.72
 18.76 18.84 18.92 19.   19.08 19.16 19.24 19.32 19.4  19.48 19.56 19.64
 20.68 20.76 20.84 20.92 21.   21.08 21.16 21.24 21.32 21.4  21.48 21.56
 22.6  22.68 22.76 22.84 22.92 23.   23.08 23.16 23.24 23.32 23.4  23.48
 24.52 24.6  24.68 24.76 24.84 24.92 25.   25.08 25.16 25.24 25.32 25.4
 26.44 26.52 26.6  26.68 26.76 26.84 26.92 27.   27.08 27.16 27.24 27.32
 28.36 28.44 28.52 28.6  28.68 28.76 28.84 28.92 29.   29.08 29.16 29.24
 30.28 30.36 30.44 30.52 30.6  30.68 30.76 30.84 30.92 31.   31.08 31.16
 32.2  32.28 32.36 32.44 32.52 32.6  32.68 32.76 32.84 32.92 33.  ]","[3035. 3151. 3158. 3160. 3196. 3194. 3085. 3195. 3175. 3146. 3227. 3169.
 3347. 3493. 3379. 3511. 3445. 3388. 3604. 3551. 3431. 3528. 3530. 3585.
 3863. 3923. 3985. 3899. 3925. 3898. 3929. 3901. 4014. 4089. 4032. 4226.
 4557. 4465. 4517. 4603. 4499. 4686. 4703. 4614. 4796. 4638. 4919. 4857.
 5214. 5290. 5251. 5062. 5231. 5298. 5205. 5259. 5440. 5329. 5400. 5333.
 5245. 5172. 5157. 5242. 5038. 5074. 4959. 5077. 4993. 5014. 5075. 4744.
 4507. 4516. 4401. 4260. 4380. 4307. 4215. 4140. 4106. 4097. 4128. 4134.
 3829. 3604. 3541. 3562. 3617. 3451. 3559. 3421. 3385. 3471. 3456. 3418.
 3199. 3021. 2988. 3027. 2974. 2918. 3077. 3115. 2904. 2964. 3037. 2915.
 2698. 2758. 2737. 2663. 2709. 2589. 2634. 2725. 2562. 2567. 2608. 2517.
 2551. 2538. 2473. 2594. 2437. 2308. 2422. 2401. 2468. 2492. 2415.]",14342.3,397.741,61.8633,0.004514362,0.167701,0.004816558,2394.12,241.573,"[60.04 60.12 60.2  60.28 60.36 60.44 60.52 60.6  60.68 60.76 60.84 60.92
 61.96 62.04 62.12 62.2  62.28 62.36 62.44 62.52 62.6  62.68 62.76 62.84
  1857.  2826.  4221.  5790.  6275.  5487.  4283.  3399.  4177.  8803.
  2048.  1903.  1701.  1528.  1499.  1608.  1604.  1535.]",76648.9,21428.9,0.720428,0.279572,33.485
 15.52 15.6  15.68 15.76 15.84 15.92 16.   16.08 16.16 16.24 16.32 16.4
 17.44 17.52 17.6  17.68 17.76 17.84 17.92 18.   18.08 18.16 18.24 18.32
 19.36 19.44 19.52 19.6  19.68 19.76 19.84 19.92 20.   20.08 20.16 20.24
 21.28 21.36 21.44 21.52 21.6  21.68 21.76 21.84 21.92 22.   22.08 22.16
 23.2  23.28 23.36 23.44 23.52 23.6  23.68 23.76 23.84 23.92 24.   24.08
 25.12 25.2  25.28 25.36 25.44 25.52 25.6  25.68 25.76 25.84 25.92 26.
 27.04 27.12 27.2  27.28 27.36 27.44 27.52 27.6  27.68 27.76 27.84 27.92
 28.96 29.04 29.12 29.2  29.28 29.36 29.44 29.52 29.6  29.68 29.76 29.84
 30.88 30.96 31.04 31.12 31.2  31.28 31.36 31.44 31.52 31.6  31.68 31.76
 32.8  32.88 32.96 33.04 33.12 33.2  33.28 33.36 33.44 33.52 33.6  33.68
 3256 3408 3484 3300 3478 3500 3460 3378 3605 3394 3626 3554 3542 3574
 3729 3844 3837 3890 3973 3947 4029 4101 4070 4055 4224 4055 4261 4174
 4560 4678 4588 4741 4720 4802 4616 4765 4736 4861 4818 4754 4811 4858
 4810 4844 4642 4667 4701 4727 4666 4718 4637 4507 4666 4540 4433 4547
 4085 4046 3984 4014 3907 3927 3831 3814 3821 3835 3828 3692 3625 3568
 3348 3254 3203 3262 3246 3136 3223 3092 2966 2965 3074 3139 3150 2984
 2681 2698 2825 2681 2615 2688 2707 2701 2759 2616 2705 2620 2635 2573
 2631 2615 2550 2552 2329 2342 2373 2364 2380 2366 2320 2318 2339 2230
 2235 2269 2300 2169 2286 2241]",11575.8,55.986,63.8764,0.000863673,0.1762,0.000905565,1408.41,28.6351,"[62.   62.08 62.16 62.24 62.32 62.4  62.48 62.56 62.64 62.72 62.8  62.88
 63.92 64.   64.08 64.16 64.24 64.32 64.4  64.48 64.56 64.64 64.72 64.8
 65.84 65.92 66.  ]","[ 1484  1444  1416  1322  1512  1317  1526  1337  1418  1524  1392  1487
 26413 22180 14898  8559  4520  2302  1955  1838  1671  1497  1414  1428
  1289  1255  1225]",68905.9,17209.5,0.750247,0.249753,38.8837
 3082. 3166. 3197. 3239. 3308. 3435. 3449. 3661. 3630. 3761. 3727. 3540.
 3436. 3298. 3400. 3353. 3382. 3461. 3401. 3346. 3459. 3454. 3630. 3516.
 3806. 3764. 3806. 3854. 3888. 3803. 3877. 4023. 3981. 3910. 3988. 4066.
 4231. 4335. 4332. 4255. 4371. 4247. 4336. 4402. 4415. 4386. 4418. 4401.
 4521. 4482. 4439. 4382. 4347. 4365. 4408. 4332. 4283. 4333. 4177. 4276.
 3990. 3899. 4035. 3906. 3850. 3737. 3903. 3724. 3779. 3733. 3684. 3779.
 3282. 3458. 3377. 3221. 3282. 3293. 3264. 3294. 3133. 3133. 3152. 3043.
 2840. 2710. 2900. 2767. 2846. 2847. 2739. 2740. 2770. 2761. 2705. 2640.
 2512. 2520. 2502. 2513. 2411. 2562. 2518. 2505. 2375. 2384. 2458. 2358.
 2273. 2281. 2268.]",15852.6,195.918,15.398,0.001513174,0.175912,0.001893381,2727.8,168.755,"[14.52, 14.6, 14.68, 14.76, 14.84, 14.92, 15, 15.08, 15.16, 15.24, 15.32, 15.4, 15.48, 15.56, 15.64, 15.72, 15.8, 15.88]","[ 3059.  3014.  3025.  3084.  3001.  3165.  4643.  9144. 17516. 27399.
"MSS p (full, 9w).csv",9,[  5.04   5.12   5.2  ... 128.8  128.88 128.96],[78653. 64725. 52503. ...  2701.  2768.  2751.],"[13.0, 34.0]","[86.0, 89.0]",43477.7,562.578,17.3661,0.003918714,0.271776,0.003966589,5960.7,102.025,"[13.04 13.12 13.2  13.28 13.36 13.44 13.52 13.6  13.68 13.76 13.84 13.92
 14.96 15.04 15.12 15.2  15.28 15.36 15.44 15.52 15.6  15.68 15.76 15.84
 16.88 16.96 17.04 17.12 17.2  17.28 17.36 17.44 17.52 17.6  17.68 17.76
 18.8  18.88 18.96 19.04 19.12 19.2  19.28 19.36 19.44 19.52 19.6  19.68
 20.72 20.8  20.88 20.96 21.04 21.12 21.2  21.28 21.36 21.44 21.52 21.6
 22.64 22.72 22.8  22.88 22.96 23.04 23.12 23.2  23.28 23.36 23.44 23.52
 24.56 24.64 24.72 24.8  24.88 24.96 25.04 25.12 25.2  25.28 25.36 25.44
 26.48 26.56 26.64 26.72 26.8  26.88 26.96 27.04 27.12 27.2  27.28 27.36
 28.4  28.48 28.56 28.64 28.72 28.8  28.88 28.96 29.04 29.12 29.2  29.28
 30.32 30.4  30.48 30.56 30.64 30.72 30.8  30.88 30.96 31.04 31.12 31.2
 32.24 32.32 32.4  32.48 32.56 32.64 32.72 32.8  32.88 32.96 33.04 33.12
  5384.  5383.  5421.  5494.  5495.  5592.  5384.  5571.  5551.  5735.
  6005.  6157.  6054.  5990.  6043.  5863.  5974.  5929.  6011.  6095.
 38084. 53902. 64403. 68469. 66761. 61933. 57270. 50739. 41847. 31841.
  7092.  7273.  7231.  7416.  7521.  7289.  7360.  7409.  7398.  7336.
  7736.  7722.  7882.  7867.  7836.  7829.  7964.  7846.  7971.  7926.
  8003.  8189.  7919.  7925.  7978.  8132.  8010.  8012.  8107.  7894.
  7390.  7577.  7426.  7300.  7468.  7409.  7358.  7226.  7382.  7184.
  6598.  6707.  6357.  6674.  6530.  6577.  6442.  6343.  6251.  6269.
  5946.  5795.  5704.  5529.  5684.  5760.  5536.  5561.  5491.  5546.
  5144.  5259.  5108.  5148.  4996.  5073.  4949.  5002.  4844.  4998.
  4897.  4702.  4671.  4503.  4546.  4613.  4457.  4400.  4527.  4396.
  4421.  4316.  4233.  4197.  4217.  4193.  4189.  4188.  4127.  4064.
  3990.  4005.  4001.  4066.  4032.  4059.  3941.  3881.  3921.  4033.
 86.96 87.04 87.12 87.2  87.28 87.36 87.44 87.52 87.6  87.68 87.76 87.84
 88.88 88.96]","[6.642000e+03 7.005000e+03 7.293000e+03 7.818000e+03 8.242000e+03
 1.319000e+04 1.415300e+04 1.616200e+04 1.819500e+04 2.086800e+04
 5.549613e+06 8.257587e+06 8.816095e+06 7.329129e+06 4.590296e+06
 2.649000e+04 1.760800e+04 1.418600e+04 1.275500e+04 1.145000e+04
"MSS p (full, 10w).csv",10,[  6.04   6.12   6.2  ... 128.76 128.84 128.92],[5588. 5439. 5538. ... 8633. 8555. 8280.],"[14.0, 35.0]","[18.0, 21.0]",39819.3,545.237,21.3032,0.0270708,4.27644,0.0434094,3811.33,24.1188,"[14.04, 14.12, 14.2, 14.28, 14.36, 14.44, 14.52, 14.6, 14.68, 14.76, 14.84, 14.92, 15.0, 15.08, 15.16, 15.24, 15.32, 15.4, 15.48, 15.56, 15.64, 15.72, 15.8, 15.88, 15.96, 16.04, 16.12, 16.2, 16.28, 16.36, 16.44, 16.52, 16.6, 16.68, 16.76, 16.84, 16.92, 17.0, 17.08, 17.16, 17.24, 17.32, 17.4, 17.48, 17.56, 17.64, 17.72, 17.8, 17.88, 17.96, 21, 21.08, 21.16, 21.24, 21.32, 21.4, 21.48, 21.56, 21.64, 21.72, 21.8, 21.88, 21.96, 22.04, 22.12, 22.2, 22.28, 22.36, 22.44, 22.52, 22.6, 22.68, 22.76, 22.84, 22.92, 23, 23.08, 23.16, 23.24, 23.32, 23.4, 23.48, 23.56, 23.64, 23.72, 23.8, 23.88, 23.96, 24.04, 24.12, 24.2, 24.28, 24.36, 24.44, 24.52, 24.6, 24.68, 24.76, 24.84, 24.92, 25, 25.08, 25.16, 25.24, 25.32, 25.4, 25.48, 25.56, 25.64, 25.72, 25.8, 25.88, 25.96, 26.04, 26.12, 26.2, 26.28, 26.36, 26.44, 26.52, 26.6, 26.68, 26.76, 26.84, 26.92, 27, 27.08, 27.16, 27.24, 27.32, 27.4, 27.48, 27.56, 27.64, 27.72, 27.8, 27.88, 27.96, 28.04, 28.12, 28.2, 28.28, 28.36, 28.44, 28.52, 28.6, 28.68, 28.76, 28.84, 28.92, 29, 29.08, 29.16, 29.24, 29.32, 29.4, 29.48, 29.56, 29.64, 29.72, 29.8, 29.88, 29.96, 30.04, 30.12, 30.2, 30.28, 30.36, 30.44, 30.52, 30.6, 30.68, 30.76, 30.84, 30.92, 31, 31.08, 31.16, 31.24, 31.32, 31.4, 31.48, 31.56, 31.64, 31.72, 31.8, 31.88, 31.96, 32.04, 32.12, 32.2, 32.28, 32.36, 32.44, 32.52, 32.6, 32.68, 32.76, 32.84, 32.92, 33, 33.08, 33.16, 33.24, 33.32, 33.4, 33.48, 33.56, 33.64, 33.72, 33.8, 33.88, 33.96, 34.04, 34.12, 34.2, 34.28, 34.36, 34.44, 34.52, 34.6, 34.68, 34.76, 34.84, 34.92]","[5005. 5055. 5053. 5267. 5115. 5020. 5049. 4969. 5092. 5085. 5114. 5036.
 5427. 5591. 5494. 5443. 5648. 5734. 5752. 5682. 5691. 5765. 5846. 5727.
 6334. 6528. 7734. 7823. 7834. 7833. 7655. 7671. 7628. 7614. 7673. 7539.
 7422. 7321. 7338. 7359. 7281. 7006. 7271. 7208. 7242. 7067. 7110. 6926.
 6465. 6332. 6312. 6334. 6323. 6280. 6024. 6051. 6071. 6000. 6004. 6029.
 5385. 5456. 5231. 5385. 5382. 5322. 5286. 5236. 5120. 5109. 5136. 5131.
 4900. 4697. 4734. 4750. 4669. 4704. 4586. 4553. 4636. 4589. 4500. 4614.
 4335. 4282. 4292. 4333. 4202. 4313. 4109. 4225. 4216. 4072. 4197. 4143.
 3917. 3947. 3920. 3873. 3899. 3923. 3852. 3884. 3789. 3917. 3762. 3856.
 3606. 3702. 3661. 3831. 3614. 3623. 3667. 3714. 3747.]",50932.5,1513.86,19.3774,0.006832071,0.284891,0.007936375,6527.43,714.91,"[18.04, 18.12, 18.2, 18.28, 18.36, 18.44, 18.52, 18.6, 18.68, 18.76, 18.84, 18.92, 19, 19.08, 19.16, 19.24, 19.32, 19.4, 19.48, 19.56, 19.64, 19.72, 19.8, 19.88, 19.96, 20.04, 20.12, 20.2, 20.28, 20.36, 20.44, 20.52, 20.6, 20.68, 20.76, 20.84, 20.92]","[ 6777.  6886.  6957.  7034.  7322.  7426.  7595.  7920.  8071.  8557.
 56081. 45151. 33426. 21826. 13542.  9144.  7615.  7753.  7625.  7581.
"MSS p (full, 11w).csv",11,[  7.04   7.12   7.2  ... 128.8  128.88 128.96],[4824. 4716. 4652. ... 2725. 2902. 2780.],"[12.0, 37.0]","[19.0, 22.0]",39486.6,931.121,21.4701,0.0500677,4.55429,0.0864848,3574.19,38.1055,"[12.0, 12.08, 12.16, 12.24, 12.32, 12.4, 12.48, 12.56, 12.64, 12.72, 12.8, 12.88, 12.96, 13.04, 13.12, 13.2, 13.28, 13.36, 13.44, 13.52, 13.6, 13.68, 13.76, 13.84, 13.92, 14, 14.08, 14.16, 14.24, 14.32, 14.4, 14.48, 14.56, 14.64, 14.72, 14.8, 14.88, 14.96, 15.04, 15.12, 15.2, 15.28, 15.36, 15.44, 15.52, 15.6, 15.68, 15.76, 15.84, 15.92, 16, 16.08, 16.16, 16.24, 16.32, 16.4, 16.48, 16.56, 16.64, 16.72, 16.8, 16.88, 16.96, 17.04, 17.12, 17.2, 17.28, 17.36, 17.44, 17.52, 17.6, 17.68, 17.76, 17.84, 17.92, 18, 18.08, 18.16, 18.24, 18.32, 18.4, 18.48, 18.56, 18.64, 18.72, 18.8, 18.88, 18.96, 22, 22.08, 22.16, 22.24, 22.32, 22.4, 22.48, 22.56, 22.64, 22.72, 22.8, 22.88, 22.96, 23.04, 23.12, 23.2, 23.28, 23.36, 23.44, 23.52, 23.6, 23.68, 23.76, 23.84, 23.92, 24, 24.08, 24.16, 24.24, 24.32, 24.4, 24.48, 24.56, 24.64, 24.72, 24.8, 24.88, 24.96, 25.04, 25.12, 25.2, 25.28, 25.36, 25.44, 25.52, 25.6, 25.68, 25.76, 25.84, 25.92, 26, 26.08, 26.16, 26.24, 26.32, 26.4, 26.48, 26.56, 26.64, 26.72, 26.8, 26.88, 26.96, 27.04, 27.12, 27.2, 27.28, 27.36, 27.44, 27.52, 27.6, 27.68, 27.76, 27.84, 27.92, 28, 28.08, 28.16, 28.24, 28.32, 28.4, 28.48, 28.56, 28.64, 28.72, 28.8, 28.88, 28.96, 29.04, 29.12, 29.2, 29.28, 29.36, 29.44, 29.52, 29.6, 29.68, 29.76, 29.84, 29.92, 30, 30.08, 30.16, 30.24, 30.32, 30.4, 30.48, 30.56, 30.64, 30.72, 30.8, 30.88, 30.96, 31.04, 31.12, 31.2, 31.28, 31.36, 31.44, 31.52, 31.6, 31.68, 31.76, 31.84, 31.92, 32, 32.08, 32.16, 32.24, 32.32, 32.4, 32.48, 32.56, 32.64, 32.72, 32.8, 32.88, 32.96, 33.04, 33.12, 33.2, 33.28, 33.36, 33.44, 33.52, 33.6, 33.68, 33.76, 33.84, 33.92, 34, 34.08, 34.16, 34.24, 34.32, 34.4, 34.48, 34.56, 34.64, 34.72, 34.8, 34.88, 34.96, 35.04, 35.12, 35.2, 35.28, 35.36, 35.44, 35.52, 35.6, 35.68, 35.76, 35.84, 35.92, 36, 36.08, 36.16, 36.24, 36.32, 36.4, 36.48, 36.56, 36.64, 36.72, 36.8, 36.88]","[4755. 4795. 4773. 4769. 4750. 4627. 4660. 4741. 4562. 4634. 4647. 4607.
 4703. 4672. 4760. 4700. 4744. 4657. 4783. 4781. 4935. 4788. 4939. 4853.
 5035. 5037. 5194. 5126. 5138. 5139. 5107. 5261. 5274. 5353. 5224. 5342.
 5866. 5695. 5811. 5885. 5800. 5826. 5943. 5994. 5985. 6104. 6006. 6146.
 7325. 7367. 7297. 7242. 7100. 7098. 6989. 7130. 6936. 6964. 6930. 6813.
 6367. 6002. 6145. 6115. 6156. 6123. 5942. 5927. 6041. 5824. 5829. 5875.
 5354. 5208. 5248. 5235. 5111. 5079. 5076. 5060. 5008. 4990. 5026. 5121.
 4613. 4506. 4521. 4541. 4426. 4548. 4546. 4598. 4493. 4392. 4300. 4473.
 4156. 4092. 4070. 3989. 4107. 3976. 3875. 3963. 3908. 3937. 3881. 3942.
 3821. 3856. 3777. 3656. 3820. 3777. 3552. 3747. 3582. 3767. 3707. 3595.
 3596. 3508. 3578. 3539. 3543. 3523. 3417. 3575. 3422. 3320. 3527. 3359.
 3328. 3375. 3280. 3379. 3415. 3404. 3412. 3434. 3308. 3425. 3324.]",53755.6,1671.23,21.3537,0.007754053,0.297879,0.008891344,6377.39,757.257,"[19.04, 19.12, 19.2, 19.28, 19.36, 19.44, 19.52, 19.6, 19.68, 19.76, 19.84, 19.92, 20, 20.08, 20.16, 20.24, 20.32, 20.4, 20.48, 20.56, 20.64, 20.72, 20.8, 20.88, 20.96, 21.04, 21.12, 21.2, 21.28, 21.36, 21.44, 21.52, 21.6, 21.68, 21.76, 21.84, 21.92]","[ 6240.  6372.  6316.  6494.  6456.  6562.  6559.  6558.  6871.  7013.
  8076.  8483. 11779. 20519. 34744. 53687. 67091. 74174. 75880. 72552.
"MSS p (full, 12w).csv",12,[  8.04   8.12   8.2  ... 128.76 128.84 128.92],[4210. 4212. 4042. ... 2794. 2765. 2766.],"[14.0, 38.0]","[21.0, 25.0]",37169.3,481.808,21.833,0.031127,4.76942,0.0531244,3240.93,18.8653,"[14.04, 14.12, 14.2, 14.28, 14.36, 14.44, 14.52, 14.6, 14.68, 14.76, 14.84, 14.92, 15.0, 15.08, 15.16, 15.24, 15.32, 15.4, 15.48, 15.56, 15.64, 15.72, 15.8, 15.88, 15.96, 16.04, 16.12, 16.2, 16.28, 16.36, 16.44, 16.52, 16.6, 16.68, 16.76, 16.84, 16.92, 17.0, 17.08, 17.16, 17.24, 17.32, 17.4, 17.48, 17.56, 17.64, 17.72, 17.8, 17.88, 17.96, 18.04, 18.12, 18.2, 18.28, 18.36, 18.44, 18.52, 18.6, 18.68, 18.76, 18.84, 18.92, 19, 19.08, 19.16, 19.24, 19.32, 19.4, 19.48, 19.56, 19.64, 19.72, 19.8, 19.88, 19.96, 20.04, 20.12, 20.2, 20.28, 20.36, 20.44, 20.52, 20.6, 20.68, 20.76, 20.84, 20.92, 25, 25.08, 25.16, 25.24, 25.32, 25.4, 25.48, 25.56, 25.64, 25.72, 25.8, 25.88, 25.96, 26.04, 26.12, 26.2, 26.28, 26.36, 26.44, 26.52, 26.6, 26.68, 26.76, 26.84, 26.92, 27, 27.08, 27.16, 27.24, 27.32, 27.4, 27.48, 27.56, 27.64, 27.72, 27.8, 27.88, 27.96, 28.04, 28.12, 28.2, 28.28, 28.36, 28.44, 28.52, 28.6, 28.68, 28.76, 28.84, 28.92, 29, 29.08, 29.16, 29.24, 29.32, 29.4, 29.48, 29.56, 29.64, 29.72, 29.8, 29.88, 29.96, 30.04, 30.12, 30.2, 30.28, 30.36, 30.44, 30.52, 30.6, 30.68, 30.76, 30.84, 30.92, 31, 31.08, 31.16, 31.24, 31.32, 31.4, 31.48, 31.56, 31.64, 31.72, 31.8, 31.88, 31.96, 32.04, 32.12, 32.2, 32.28, 32.36, 32.44, 32.52, 32.6, 32.68, 32.76, 32.84, 32.92, 33, 33.08, 33.16, 33.24, 33.32, 33.4, 33.48, 33.56, 33.64, 33.72, 33.8, 33.88, 33.96, 34.04, 34.12, 34.2, 34.28, 34.36, 34.44, 34.52, 34.6, 34.68, 34.76, 34.84, 34.92, 35, 35.08, 35.16, 35.24, 35.32, 35.4, 35.48, 35.56, 35.64, 35.72, 35.8, 35.88, 35.96, 36.04, 36.12, 36.2, 36.28, 36.36, 36.44, 36.52, 36.6, 36.68, 36.76, 36.84, 36.92, 37, 37.08, 37.16, 37.24, 37.32, 37.4, 37.48, 37.56, 37.64, 37.72, 37.8, 37.88]","[4237. 4364. 4398. 4347. 4421. 4307. 4338. 4280. 4466. 4338. 4503. 4495.
 4624. 4687. 4659. 4750. 4810. 5023. 4782. 4938. 4878. 4787. 4846. 4932.
 5176. 5339. 5292. 5428. 5334. 5322. 5339. 5434. 5496. 5492. 5613. 5689.
 6190. 6268. 6311. 6132. 6294. 6551. 6408. 6338. 6377. 6438. 6540. 6409.
 5419. 5503. 5247. 5468. 5238. 5223. 5268. 5078. 5007. 5163. 5141. 5038.
 4676. 4773. 4576. 4523. 4605. 4670. 4621. 4387. 4430. 4409. 4415. 4354.
 4046. 3972. 4088. 3948. 3985. 4089. 3959. 3852. 3999. 3951. 3893. 4028.
 3729. 3717. 3546. 3716. 3735. 3658. 3560. 3680. 3703. 3688. 3539. 3602.
 3334. 3407. 3418. 3405. 3499. 3471. 3350. 3427. 3492. 3404. 3311. 3414.
 3312. 3422. 3395. 3185. 3196. 3288. 3203. 3312. 3229. 3208. 3005. 3216.
 3080. 3088. 3088. 3026. 3101. 3056. 3121. 3083. 3232.]",53104.9,1448.85,23.3503,0.007365235,0.30229,0.008148284,6099.36,571.388,"[21, 21.08, 21.16, 21.24, 21.32, 21.4, 21.48, 21.56, 21.64, 21.72, 21.8, 21.88, 21.96, 22.04, 22.12, 22.2, 22.28, 22.36, 22.44, 22.52, 22.6, 22.68, 22.76, 22.84, 22.92, 23, 23.08, 23.16, 23.24, 23.32, 23.4, 23.48, 23.56, 23.64, 23.72, 23.8, 23.88, 23.96, 24.04, 24.12, 24.2, 24.28, 24.36, 24.44, 24.52, 24.6, 24.68, 24.76, 24.84, 24.92]","[ 6416.  6529.  6504.  6703.  6691.  6657.  6767.  6809.  6739.  6996.
  7590.  7782.  9361. 16069. 27637. 45615. 61199. 70572. 72981. 71926.
  6696.  6605.  6537.  6240.  6086.  6215.  6101.  6013.  6038.  6256.]",111844,77014.4,0.31141,0.68859,70.4915
 4228. 4126. 4028. 4200. 4056. 4091. 4131. 4056. 4058. 3940. 4102. 4165.
 4255. 4310. 4427. 4389. 4342. 4271. 4480. 4388. 4525. 4446. 4524. 4645.
 5001. 4810. 5008. 4996. 5092. 5087. 5106. 5079. 5154. 5230. 5109. 5261.
 5710. 5600. 5702. 5741. 5751. 5893. 5936. 5968. 5947. 5995. 6030. 5887.
 6188. 6273. 6204. 6348. 6113. 6229. 6298. 6328. 6279. 6050. 6160. 6113.
 4638. 4547. 4406. 4493. 4583. 4454. 4420. 4272. 4331. 4277. 4097. 4192.
 4057. 3906. 3896. 3903. 4090. 3885. 3852. 3810. 3901. 3790. 3865. 3651.
 3539. 3607. 3555. 3653. 3527. 3531. 3601. 3651. 3488. 3565. 3389. 3447.
 3354. 3363. 3309. 3420. 3253. 3266. 3284. 3320. 3243. 3143. 3227. 3174.
 3099. 3094. 3186. 3115. 3174. 3156. 2987. 3126. 3216. 3063.]",50231.3,1418.75,25.3413,0.007631829,0.305954,0.008486383,5228.72,561.805,"[23.04, 23.12, 23.2, 23.28, 23.36, 23.44, 23.52, 23.6, 23.68, 23.76, 23.84, 23.92, 24, 24.08, 24.16, 24.24, 24.32, 24.4, 24.48, 24.56, 24.64, 24.72, 24.8, 24.88, 24.96, 25.04, 25.12, 25.2, 25.28, 25.36, 25.44, 25.52, 25.6, 25.68, 25.76, 25.84, 25.92, 26, 26.08, 26.16, 26.24, 26.32, 26.4, 26.48, 26.56, 26.64, 26.72, 26.8, 26.88]","[ 6221.  6280.  6266.  6175.  6212.  6185.  6143.  5834.  6204.  6040.
  6683.  7424. 12061. 21531. 36089. 52212. 63496. 67153. 68170. 64079.
  5420.  5437.  5280.  5081.  5138.  5069.  5152.  4970.  5012.]",105339,70309.6,0.33254,0.66746,76.0393
 3730. 3672. 3775. 3764. 3787. 3749. 3918. 3878. 3943. 3952. 3873. 3876.
 3958. 3962. 4066. 3936. 3998. 4000. 4090. 4079. 4155. 4031. 4163. 4112.
 4647. 4631. 4481. 4552. 4815. 4548. 4620. 4649. 4778. 4908. 4908. 4900.
 5194. 5364. 5411. 5426. 5449. 5401. 5487. 5404. 5431. 5432. 5648. 5587.
 5776. 5854. 5733. 5740. 5699. 5761. 5752. 5860. 5817. 5865. 5776. 5819.
 5654. 5600. 5640. 5601. 5569. 5607. 5417. 5487. 5317. 5288. 5316. 5288.
 3912. 3974. 4053. 3779. 3794. 3815. 3856. 3772. 3673. 3694. 3676. 3677.
 3498. 3561. 3509. 3381. 3378. 3438. 3403. 3368. 3385. 3432. 3515. 3301.
 3376. 3243. 3211. 3165. 3177. 3266. 3183. 3144. 3095. 3161. 3186. 3124.
 3042. 3031. 3125. 3027. 3024. 3023. 3019. 3122. 2900. 2945. 3007. 2920.
 2925. 2857. 2869. 2817. 2835. 2819. 2911. 2855. 2837. 2818.]",46029.6,1320.33,27.3549,0.007944172,0.314364,0.008843725,4232.21,510.612,"[25, 25.08, 25.16, 25.24, 25.32, 25.4, 25.48, 25.56, 25.64, 25.72, 25.8, 25.88, 25.96, 26.04, 26.12, 26.2, 26.28, 26.36, 26.44, 26.52, 26.6, 26.68, 26.76, 26.84, 26.92, 27, 27.08, 27.16, 27.24, 27.32, 27.4, 27.48, 27.56, 27.64, 27.72, 27.8, 27.88, 27.96, 28.04, 28.12, 28.2, 28.28, 28.36, 28.44, 28.52, 28.6, 28.68, 28.76, 28.84, 28.92]","[ 5114.  5088.  5086.  5067.  5082.  5095.  5060.  5135.  5129.  5004.
  5502.  5601.  7760. 14147. 24170. 39524. 51594. 57244. 60029. 58493.
  4755.  4625.  4600.  4378.  4376.  4337.  4190.  4215.  4299.  4047.]",105954,62619.8,0.408989,0.591011,80.8958
 3689. 3732. 3708. 3696. 3723. 3832. 3827. 3852. 3883. 3991. 3798. 3740.
 4101. 4155. 4193. 4147. 4264. 4233. 4339. 4455. 4219. 4324. 4299. 4471.
 4920. 4829. 4978. 4975. 4977. 4985. 5102. 5032. 5124. 5084. 5268. 5035.
 5138. 5379. 5376. 5291. 5478. 5349. 5304. 5320. 5265. 5238. 5341. 5323.
 5008. 5063. 5152. 5055. 5114. 5044. 4973. 5079. 5029. 4997. 4830. 5034.
 4620. 4519. 4446. 4493. 4382. 4487. 4445. 4448. 4390. 4273. 4186. 4518.
 3626. 3454. 3468. 3437. 3351. 3405. 3306. 3324. 3230. 3412. 3285. 3366.
 3111. 3095. 3146. 3076. 3126. 3065. 2990. 3087. 3050. 2967. 3025. 3052.
 3013. 2969. 2997. 3070. 2804. 2962. 2778. 2895. 2924. 2826. 2803. 2761.
 2737. 2706. 2783. 2716. 2877. 2702. 2677. 2713. 2734. 2714. 2651. 2618.
  4126.  4095.  4109.  4139.  4116.  4210.  4195.  4247.  4198.  4557.
 48030. 46372. 43969. 38999. 31080. 22767. 13976.  7836.  4851.  4210.
  4117.  4036.  3888.  3866.  3739.  3688.  3711.  3696.  3923.]",94152.9,54205.4,0.424283,0.575717,86.3601
,,,,,,,,,,,,,,,,,,,,,,,,,,,,,,
,,,,,0.529826,0.291958,,0.004253536,,0.209894,,0,2.67998,,,0.291958,,0.001773833,,0.215064,,0.05248033,,,,,,,,
,,,,,,0.0705991,,0.002687305,,0.0391578,,0.116297,,,,0.100394,,0.000290625,,0.0842633,,0.0424645,,,,,,,,
,,,,,,0.0754235,,0.002306272,,0.0395878,,0.121026,,,,0.0368715,,0.000158514,,0.0364503,,0.02193848,,,,,,,,
,,,,,,0.0505571,,0.003327981,,0.0360247,,0.029208,,,,0.0417773,,0.00020667,,0.0391875,,0.0341985,,,,,,,,
,,,,,,0.0183992,,0.00148856,,0.01402879,,0.01431131,,,,0.0222444,,8.37464E-05,,0.0199412,,0.0494086,,,,,,,,
,,,,,,0.0165804,,0.001373327,,0.0124179,,0.0127694,,,,0.0168076,,6.69935E-05,,0.016843,,0.042508,,,,,,,,
,,,,,,0.0217237,,0.001374113,,0.0159548,,0.0180313,,,,0.0153766,,5.86805E-05,,0.0154574,,0.0518624,,,,,,,,
,,,,,,0.0282417,,0.002148919,,0.02113609,,0.0232927,,,,0.0129106,,3.38232E-05,,0.0139874,,0.0847244,,,,,,,,
,,,,,,0.08677658,,0.005475377,,0.0543069,,0.0684793,,,,0.0101652,,2.45829E-05,,0.0107856,,0,-1.29532,,,,,,,
,,,,,,0.0585458,,0.005370718,,0.0399016,,0.04654637,,,,0.0126267,,3.47172E-05,,0.0137877,,0.0651605,,,,,,,,
,,,,,,0.019059,,0.001164986,,0.0135688,,0.007480022,,,,0.0110086,,2.70193E-05,,0.0105819,,0.0943359,,,,,,,,
,,,,,,0.0219305,,0.001420921,,0.0147921,,0.0108137,,,,0.02773211,,7.29732E-05,,0.0287211,,0.100902,,,,,,,,
,,,,,,0.0179959,,0.001330293,,0.0123275,,0.009017483,,,,0.004836455,,1.3521E-05,,0.005139428,,0.0203315,,,,,,,,
,,,,,,0.09852012,,0.003912085,,0.0534156,,0.05129587,,,,0.0123587,,9.82706E-05,,0.0107633,,0.0618647,,,,,,,,
,,,,,,0.0129395,,0.000225653,,0.01459505,,0.0171163,,,,0.006374389,,1.05772E-05,,0.006703982,,0,-54.0615,,,,,,,
,,,,,,0.0136928,,0.001270739,,0.0101508,,0.006328196,,,,0.029723,,0.000352579,,0.0278576,,0.109524,,,,,,,,
,,,,,,0.0235807,,0.002331974,,0.0189897,,0.0106613,,,,0.0310895,,0.000363125,,0.0298489,,0.118741,,,,,,,,
,,,,,,0.01296252,,0.001425691,,0.0111386,,0.005820953,,,,0.0272827,,0.000315424,,0.0269552,,0.09368,,,,,,,,
,,,,,,0.0209456,,0.001878168,,0.0139993,,0.008477023,,,,0.02824433,,0.000301162,,0.0277375,,0.107446,,,,,,,,
,,,,,,0.0166749,,0.001624601,,0.0111133,,0.006801556,,,,0.0286843,,0.000290411,,0.0281321,,0.120649,,,,,,,,
,,,,,,0.0222815,,0.002375818,,0.0178044,,0.007400816,,,,0.0305828,,0.000289341,,0.0297744,,0.138935,,,,,,,,