File: Data Files/Full/p csv/Processed_XRD_Data.csv
,omega,Position,Intensity,amorphous_range,crystalline_range,amorphous_fit_amplitude,amorphous_fit_amplitude_uncertainty,amorphous_fit_mean,amorphous_fit_mean_uncertainty,amorphous_fit_std_dev,amorphous_fit_std_dev_uncertainty,amorphous_fit_background,amorphous_fit_background_uncertainty,chi_squared_amorphous,amorphous_nu,chi_squared_amorphous_p,amorphous_fit_amorphous_x_range_used,amorphous_fit_amorphous_y_range_used,crystalline_fit_amplitude,crystalline_fit_amplitude_uncertainty,crystalline_fit_mean,crystalline_fit_mean_uncertainty,crystalline_fit_std_dev,crystalline_fit_std_dev_uncertainty,crystalline_fit_background,crystalline_fit_background_uncertainty,chi_squared_crystalline,crystalline_nu,chi_squared_crystalline_p,crystalline_fit_crystalline_x_range_used,crystalline_fit_crystalline_y_range_used,max_amorphous,max_crystalline,amorphous_area,crystalline_area,amorphous_percentage,crystalline_percentage,amorphous_percentage_intensity,crystalline_percentage_intensity,effective_depth,effective_depth_intensity
"MSS p (full, 0.01w).csv",0.01,"[4.0000e-02 1.2000e-01 2.0000e-01 2.8000e-01 3.6000e-01 4.4000e-01
 9.6400e+00 9.7200e+00 9.8000e+00 9.8800e+00 9.9600e+00 1.0040e+01
 1.9240e+01 1.9320e+01 1.9400e+01 1.9480e+01 1.9560e+01 1.9640e+01
 2.8840e+01 2.8920e+01 2.9000e+01 2.9080e+01 2.9160e+01 2.9240e+01
 3.8440e+01 3.8520e+01 3.8600e+01 3.8680e+01 3.8760e+01 3.8840e+01
 4.8040e+01 4.8120e+01 4.8200e+01 4.8280e+01 4.8360e+01 4.8440e+01
 5.7640e+01 5.7720e+01 5.7800e+01 5.7880e+01 5.7960e+01 5.8040e+01
 6.7240e+01 6.7320e+01 6.7400e+01 6.7480e+01 6.7560e+01 6.7640e+01
 7.6840e+01 7.6920e+01 7.7000e+01 7.7080e+01 7.7160e+01 7.7240e+01
 8.6440e+01 8.6520e+01 8.6600e+01 8.6680e+01 8.6760e+01 8.6840e+01
 9.6040e+01 9.6120e+01 9.6200e+01 9.6280e+01 9.6360e+01 9.6440e+01
 1.0564e+02 1.0572e+02 1.0580e+02 1.0588e+02 1.0596e+02 1.0604e+02
 1.1524e+02 1.1532e+02 1.1540e+02 1.1548e+02 1.1556e+02 1.1564e+02
 1.2484e+02 1.2492e+02 1.2500e+02 1.2508e+02 1.2516e+02 1.2524e+02
 4.433000e+03 3.881000e+03 3.556000e+03 2.765000e+03 2.279000e+03
 4.270000e+02 4.400000e+02 4.650000e+02 4.230000e+02 4.110000e+02
 5.750000e+02 5.700000e+02 5.520000e+02 5.460000e+02 5.950000e+02
 1.740000e+02 1.520000e+02 1.620000e+02 1.680000e+02 1.540000e+02
 1.080000e+02 9.500000e+01 1.070000e+02 1.020000e+02 1.090000e+02
 7.600000e+01 8.700000e+01 6.200000e+01 7.600000e+01 5.700000e+01
 7.400000e+01 7.000000e+01 6.800000e+01 6.100000e+01 8.000000e+01
 5.100000e+01 5.800000e+01 5.400000e+01 5.500000e+01 5.800000e+01
 4.900000e+01 5.200000e+01 3.800000e+01 6.100000e+01 5.400000e+01
 4.300000e+01 5.000000e+01 4.500000e+01 5.500000e+01 6.400000e+01
 5.200000e+01 5.600000e+01 5.900000e+01 4.000000e+01 4.700000e+01
 5.300000e+01 5.100000e+01 5.800000e+01 5.200000e+01 5.100000e+01
 5.000000e+01 6.400000e+01 8.000000e+01 6.600000e+01 9.500000e+01
 9.500000e+01 7.800000e+01 1.040000e+02 1.150000e+02 9.900000e+01
 1.530000e+02 1.210000e+02 1.480000e+02 1.530000e+02 1.460000e+02
 1.890000e+02 1.800000e+02 1.950000e+02 1.670000e+02 1.820000e+02
 22.6  22.68 22.76 22.84 22.92 23.   23.08 23.16 23.24 23.32 23.4  23.48
 610.842 612.842 642.842 577.842 637.842
 121.842 118.842 132.842 129.842 122.842
 8.6800e+00 8.7600e+00 8.8400e+00 8.9200e+00 9.0000e+00 9.0800e+00
 1.8280e+01 1.8360e+01 1.8440e+01 1.8520e+01 1.8600e+01 1.8680e+01
 2.7880e+01 2.7960e+01 2.8040e+01 2.8120e+01 2.8200e+01 2.8280e+01
 3.7480e+01 3.7560e+01 3.7640e+01 3.7720e+01 3.7800e+01 3.7880e+01
 4.7080e+01 4.7160e+01 4.7240e+01 4.7320e+01 4.7400e+01 4.7480e+01
 5.6680e+01 5.6760e+01 5.6840e+01 5.6920e+01 5.7000e+01 5.7080e+01
 6.6280e+01 6.6360e+01 6.6440e+01 6.6520e+01 6.6600e+01 6.6680e+01
 7.5880e+01 7.5960e+01 7.6040e+01 7.6120e+01 7.6200e+01 7.6280e+01
 8.5480e+01 8.5560e+01 8.5640e+01 8.5720e+01 8.5800e+01 8.5880e+01
 9.5080e+01 9.5160e+01 9.5240e+01 9.5320e+01 9.5400e+01 9.5480e+01
 1.0468e+02 1.0476e+02 1.0484e+02 1.0492e+02 1.0500e+02 1.0508e+02
 1.1428e+02 1.1436e+02 1.1444e+02 1.1452e+02 1.1460e+02 1.1468e+02
 1.2388e+02 1.2396e+02 1.2404e+02 1.2412e+02 1.2420e+02 1.2428e+02
 7.567000e+03 7.360000e+03 6.932000e+03 6.356000e+03 5.869000e+03
 5.150000e+02 5.010000e+02 5.120000e+02 5.590000e+02 5.120000e+02
 6.850000e+02 6.770000e+02 7.470000e+02 7.210000e+02 7.050000e+02
 2.090000e+02 2.250000e+02 2.130000e+02 2.160000e+02 2.040000e+02
 1.170000e+02 1.160000e+02 1.170000e+02 1.030000e+02 1.050000e+02
 8.400000e+01 7.700000e+01 7.800000e+01 6.900000e+01 8.700000e+01
 7.700000e+01 7.400000e+01 6.200000e+01 7.000000e+01 7.300000e+01
 6.800000e+01 6.000000e+01 4.700000e+01 7.900000e+01 7.700000e+01
 5.800000e+01 5.600000e+01 5.200000e+01 5.300000e+01 6.300000e+01
 5.500000e+01 5.900000e+01 6.400000e+01 5.700000e+01 4.300000e+01
 5.100000e+01 4.800000e+01 5.600000e+01 5.000000e+01 5.400000e+01
 5.800000e+01 5.100000e+01 6.500000e+01 5.200000e+01 6.900000e+01
 6.600000e+01 7.300000e+01 6.300000e+01 6.400000e+01 6.800000e+01
 9.700000e+01 1.070000e+02 9.400000e+01 9.000000e+01 1.150000e+02
 1.430000e+02 1.340000e+02 1.480000e+02 1.370000e+02 1.570000e+02
 1.880000e+02 1.990000e+02 1.670000e+02 1.860000e+02 1.810000e+02
 21.72 21.8  21.88 21.96 22.04 22.12 22.2  22.28 22.36 22.44 22.52 22.6
 502.514 504.514 505.514 474.514 478.514
 1.4800e+00 1.5600e+00 1.6400e+00 1.7200e+00 1.8000e+00 1.8800e+00
 1.1080e+01 1.1160e+01 1.1240e+01 1.1320e+01 1.1400e+01 1.1480e+01
 2.0680e+01 2.0760e+01 2.0840e+01 2.0920e+01 2.1000e+01 2.1080e+01
 3.0280e+01 3.0360e+01 3.0440e+01 3.0520e+01 3.0600e+01 3.0680e+01
 3.9880e+01 3.9960e+01 4.0040e+01 4.0120e+01 4.0200e+01 4.0280e+01
 4.9480e+01 4.9560e+01 4.9640e+01 4.9720e+01 4.9800e+01 4.9880e+01
 5.9080e+01 5.9160e+01 5.9240e+01 5.9320e+01 5.9400e+01 5.9480e+01
 6.8680e+01 6.8760e+01 6.8840e+01 6.8920e+01 6.9000e+01 6.9080e+01
 7.8280e+01 7.8360e+01 7.8440e+01 7.8520e+01 7.8600e+01 7.8680e+01
 8.7880e+01 8.7960e+01 8.8040e+01 8.8120e+01 8.8200e+01 8.8280e+01
 9.7480e+01 9.7560e+01 9.7640e+01 9.7720e+01 9.7800e+01 9.7880e+01
 1.0708e+02 1.0716e+02 1.0724e+02 1.0732e+02 1.0740e+02 1.0748e+02
 1.1668e+02 1.1676e+02 1.1684e+02 1.1692e+02 1.1700e+02 1.1708e+02
 1.2628e+02 1.2636e+02 1.2644e+02 1.2652e+02 1.2660e+02 1.2668e+02
 6.930000e+02 6.680000e+02 6.820000e+02 7.060000e+02 6.980000e+02
 5.650000e+02 6.200000e+02 6.240000e+02 6.070000e+02 5.720000e+02
 8.570000e+02 8.020000e+02 7.880000e+02 7.170000e+02 7.520000e+02
 2.340000e+02 2.270000e+02 2.310000e+02 2.210000e+02 2.230000e+02
 1.660000e+02 1.250000e+02 1.260000e+02 1.400000e+02 1.430000e+02
 1.150000e+02 1.030000e+02 1.140000e+02 1.000000e+02 1.030000e+02
 9.000000e+01 9.100000e+01 9.300000e+01 7.600000e+01 7.700000e+01
 7.000000e+01 7.800000e+01 8.100000e+01 8.600000e+01 7.100000e+01
 6.300000e+01 5.900000e+01 6.600000e+01 7.300000e+01 6.200000e+01
 7.900000e+01 5.700000e+01 7.100000e+01 6.700000e+01 6.500000e+01
 5.100000e+01 6.000000e+01 5.500000e+01 6.200000e+01 6.500000e+01
 6.800000e+01 7.400000e+01 6.200000e+01 7.000000e+01 6.200000e+01
 7.100000e+01 8.700000e+01 9.600000e+01 7.200000e+01 8.700000e+01
 1.200000e+02 9.800000e+01 1.560000e+02 1.360000e+02 1.180000e+02
 1.720000e+02 1.730000e+02 1.650000e+02 1.390000e+02 1.750000e+02
 1.840000e+02 2.050000e+02 1.960000e+02 2.080000e+02 2.150000e+02
 26.52 26.6  26.68 26.76 26.84 26.92 27.   27.08 27.16 27.24 27.32 27.4
 641.017 645.017 599.017 622.017 612.017
  17.0166  17.0166   1.01657 -37.9834 -20.9834
 8.6800e+00 8.7600e+00 8.8400e+00 8.9200e+00 9.0000e+00 9.0800e+00
 1.8280e+01 1.8360e+01 1.8440e+01 1.8520e+01 1.8600e+01 1.8680e+01
 2.7880e+01 2.7960e+01 2.8040e+01 2.8120e+01 2.8200e+01 2.8280e+01
 3.7480e+01 3.7560e+01 3.7640e+01 3.7720e+01 3.7800e+01 3.7880e+01
 4.7080e+01 4.7160e+01 4.7240e+01 4.7320e+01 4.7400e+01 4.7480e+01
 5.6680e+01 5.6760e+01 5.6840e+01 5.6920e+01 5.7000e+01 5.7080e+01
 6.6280e+01 6.6360e+01 6.6440e+01 6.6520e+01 6.6600e+01 6.6680e+01
 7.5880e+01 7.5960e+01 7.6040e+01 7.6120e+01 7.6200e+01 7.6280e+01
 8.5480e+01 8.5560e+01 8.5640e+01 8.5720e+01 8.5800e+01 8.5880e+01
 9.5080e+01 9.5160e+01 9.5240e+01 9.5320e+01 9.5400e+01 9.5480e+01
 1.0468e+02 1.0476e+02 1.0484e+02 1.0492e+02 1.0500e+02 1.0508e+02
 1.1428e+02 1.1436e+02 1.1444e+02 1.1452e+02 1.1460e+02 1.1468e+02
 1.2388e+02 1.2396e+02 1.2404e+02 1.2412e+02 1.2420e+02 1.2428e+02
 7.611000e+03 7.543000e+03 6.956000e+03 6.521000e+03 5.910000e+03
 6.220000e+02 6.560000e+02 6.870000e+02 6.120000e+02 6.580000e+02
 1.064000e+03 1.108000e+03 1.152000e+03 1.114000e+03 1.083000e+03
 4.560000e+02 4.620000e+02 4.410000e+02 4.350000e+02 4.280000e+02
 2.460000e+02 2.160000e+02 2.080000e+02 2.350000e+02 2.190000e+02
 1.670000e+02 1.430000e+02 1.650000e+02 1.590000e+02 1.270000e+02
 1.160000e+02 1.420000e+02 1.280000e+02 1.390000e+02 1.140000e+02
 1.180000e+02 1.030000e+02 1.140000e+02 1.250000e+02 1.290000e+02
 1.100000e+02 8.900000e+01 9.400000e+01 1.000000e+02 1.060000e+02
 9.500000e+01 7.900000e+01 8.800000e+01 9.300000e+01 8.800000e+01
 7.900000e+01 8.800000e+01 7.400000e+01 8.800000e+01 9.200000e+01
 8.600000e+01 7.900000e+01 7.600000e+01 8.400000e+01 6.200000e+01
 8.900000e+01 8.900000e+01 8.500000e+01 8.800000e+01 9.300000e+01
 1.110000e+02 1.260000e+02 1.310000e+02 1.230000e+02 1.150000e+02
 1.660000e+02 1.560000e+02 1.800000e+02 1.550000e+02 1.500000e+02
 2.110000e+02 2.390000e+02 1.960000e+02 2.070000e+02 2.240000e+02
 18.68 18.76 18.84 18.92 19.   19.08 19.16 19.24 19.32 19.4  19.48 19.56
  235.033  171.033  205.033  175.033  260.033
  491.033  444.033  501.033  489.033  477.033
 32.44]","[-157.967  -92.9672 -156.967 -149.967 -159.967
 7.2400e+00 7.3200e+00 7.4000e+00 7.4800e+00 7.5600e+00 7.6400e+00
 1.6840e+01 1.6920e+01 1.7000e+01 1.7080e+01 1.7160e+01 1.7240e+01
 2.6440e+01 2.6520e+01 2.6600e+01 2.6680e+01 2.6760e+01 2.6840e+01
 3.6040e+01 3.6120e+01 3.6200e+01 3.6280e+01 3.6360e+01 3.6440e+01
 4.5640e+01 4.5720e+01 4.5800e+01 4.5880e+01 4.5960e+01 4.6040e+01
 5.5240e+01 5.5320e+01 5.5400e+01 5.5480e+01 5.5560e+01 5.5640e+01
 6.4840e+01 6.4920e+01 6.5000e+01 6.5080e+01 6.5160e+01 6.5240e+01
 7.4440e+01 7.4520e+01 7.4600e+01 7.4680e+01 7.4760e+01 7.4840e+01
 8.4040e+01 8.4120e+01 8.4200e+01 8.4280e+01 8.4360e+01 8.4440e+01
 9.3640e+01 9.3720e+01 9.3800e+01 9.3880e+01 9.3960e+01 9.4040e+01
 1.0324e+02 1.0332e+02 1.0340e+02 1.0348e+02 1.0356e+02 1.0364e+02
 1.1284e+02 1.1292e+02 1.1300e+02 1.1308e+02 1.1316e+02 1.1324e+02
 1.2244e+02 1.2252e+02 1.2260e+02 1.2268e+02 1.2276e+02 1.2284e+02
 8.865000e+03 8.786000e+03 8.235000e+03 8.016000e+03 8.100000e+03
 5.860000e+02 5.610000e+02 5.150000e+02 5.870000e+02 5.300000e+02
 1.014000e+03 1.002000e+03 1.036000e+03 1.028000e+03 1.057000e+03
 7.480000e+02 7.590000e+02 6.880000e+02 7.160000e+02 7.260000e+02
 3.570000e+02 3.910000e+02 4.210000e+02 3.960000e+02 3.710000e+02
 5.520000e+02 5.230000e+02 3.440000e+02 2.770000e+02 3.050000e+02
 2.660000e+02 2.160000e+02 2.400000e+02 2.310000e+02 2.340000e+02
 2.430000e+02 1.950000e+02 1.960000e+02 2.140000e+02 2.080000e+02
 1.950000e+02 1.790000e+02 2.030000e+02 1.750000e+02 2.000000e+02
 1.510000e+02 1.580000e+02 1.590000e+02 1.500000e+02 1.690000e+02
 1.360000e+02 1.410000e+02 1.290000e+02 1.220000e+02 1.560000e+02
 1.370000e+02 1.230000e+02 1.300000e+02 1.150000e+02 1.270000e+02
 1.360000e+02 1.400000e+02 1.460000e+02 1.410000e+02 1.260000e+02
 1.690000e+02 1.560000e+02 1.880000e+02 1.500000e+02 1.710000e+02
 2.330000e+02 2.300000e+02 1.940000e+02 2.240000e+02 2.100000e+02
 2.690000e+02 2.690000e+02 2.600000e+02 2.480000e+02 2.540000e+02
 16.84 16.92 17.   17.08 17.16 17.24 17.32 17.4  17.48 17.56 17.64 17.72
  104.736  112.736  108.736   84.7358  103.736
  832.736  860.736  870.736  878.736  993.736
  105.736   55.7358  134.736  117.736   42.7358
 1.9600e+00 2.0400e+00 2.1200e+00 2.2000e+00 2.2800e+00 2.3600e+00
 1.1560e+01 1.1640e+01 1.1720e+01 1.1800e+01 1.1880e+01 1.1960e+01
 2.1160e+01 2.1240e+01 2.1320e+01 2.1400e+01 2.1480e+01 2.1560e+01
 3.0760e+01 3.0840e+01 3.0920e+01 3.1000e+01 3.1080e+01 3.1160e+01
 4.0360e+01 4.0440e+01 4.0520e+01 4.0600e+01 4.0680e+01 4.0760e+01
 4.9960e+01 5.0040e+01 5.0120e+01 5.0200e+01 5.0280e+01 5.0360e+01
 5.9560e+01 5.9640e+01 5.9720e+01 5.9800e+01 5.9880e+01 5.9960e+01
 6.9160e+01 6.9240e+01 6.9320e+01 6.9400e+01 6.9480e+01 6.9560e+01
 7.8760e+01 7.8840e+01 7.8920e+01 7.9000e+01 7.9080e+01 7.9160e+01
 8.8360e+01 8.8440e+01 8.8520e+01 8.8600e+01 8.8680e+01 8.8760e+01
 9.7960e+01 9.8040e+01 9.8120e+01 9.8200e+01 9.8280e+01 9.8360e+01
 1.0756e+02 1.0764e+02 1.0772e+02 1.0780e+02 1.0788e+02 1.0796e+02
 1.1716e+02 1.1724e+02 1.1732e+02 1.1740e+02 1.1748e+02 1.1756e+02
 1.2676e+02 1.2684e+02 1.2692e+02 1.2700e+02 1.2708e+02 1.2716e+02
 5.300000e+02 4.930000e+02 5.370000e+02 5.560000e+02 5.100000e+02
 5.290000e+02 5.220000e+02 5.420000e+02 4.760000e+02 5.240000e+02
 1.126000e+03 1.143000e+03 1.199000e+03 1.141000e+03 1.078000e+03
 4.900000e+02 4.920000e+02 4.510000e+02 5.000000e+02 4.840000e+02
 3.290000e+02 3.250000e+02 3.400000e+02 3.170000e+02 3.470000e+02
 3.060000e+02 3.040000e+02 2.920000e+02 2.740000e+02 2.780000e+02
 2.810000e+02 2.640000e+02 2.910000e+02 2.640000e+02 2.770000e+02
 2.500000e+02 2.540000e+02 3.380000e+02 3.760000e+02 4.270000e+02
 2.180000e+02 2.250000e+02 2.320000e+02 2.540000e+02 3.340000e+02
 2.310000e+02 1.910000e+02 2.060000e+02 1.760000e+02 1.990000e+02
 1.930000e+02 1.690000e+02 1.920000e+02 1.850000e+02 1.810000e+02
 5.390000e+02 3.530000e+02 1.730000e+02 1.740000e+02 2.000000e+02
 1.720000e+02 1.650000e+02 2.050000e+02 1.640000e+02 1.640000e+02
 2.030000e+02 2.230000e+02 2.230000e+02 2.220000e+02 2.300000e+02
 2.520000e+02 2.280000e+02 2.870000e+02 2.810000e+02 2.680000e+02
 3.100000e+02 3.090000e+02 3.180000e+02 3.490000e+02 3.500000e+02
 25.48 25.56 25.64 25.72 25.8  25.88 25.96 26.04 26.12 26.2  26.28 26.36
  157.522  140.522  201.522  178.522
  726.522  668.522  710.522  727.522
  142.522  126.522  122.522  85.5217
 1247.52 2392.52 3409.52 3690.52 2861.52
 7.7200e+00 7.8000e+00 7.8800e+00 7.9600e+00 8.0400e+00 8.1200e+00
 1.7320e+01 1.7400e+01 1.7480e+01 1.7560e+01 1.7640e+01 1.7720e+01
 2.6920e+01 2.7000e+01 2.7080e+01 2.7160e+01 2.7240e+01 2.7320e+01
 3.6520e+01 3.6600e+01 3.6680e+01 3.6760e+01 3.6840e+01 3.6920e+01
 4.6120e+01 4.6200e+01 4.6280e+01 4.6360e+01 4.6440e+01 4.6520e+01
 5.5720e+01 5.5800e+01 5.5880e+01 5.5960e+01 5.6040e+01 5.6120e+01
 6.5320e+01 6.5400e+01 6.5480e+01 6.5560e+01 6.5640e+01 6.5720e+01
 7.4920e+01 7.5000e+01 7.5080e+01 7.5160e+01 7.5240e+01 7.5320e+01
 8.4520e+01 8.4600e+01 8.4680e+01 8.4760e+01 8.4840e+01 8.4920e+01
 9.4120e+01 9.4200e+01 9.4280e+01 9.4360e+01 9.4440e+01 9.4520e+01
 1.0372e+02 1.0380e+02 1.0388e+02 1.0396e+02 1.0404e+02 1.0412e+02
 1.1332e+02 1.1340e+02 1.1348e+02 1.1356e+02 1.1364e+02 1.1372e+02
 1.2292e+02 1.2300e+02 1.2308e+02 1.2316e+02 1.2324e+02 1.2332e+02
 1.780400e+04 1.781000e+04 1.752900e+04 1.722000e+04 1.712400e+04
 8.210000e+02 8.230000e+02 7.640000e+02 7.490000e+02 8.580000e+02
 1.793000e+03 1.780000e+03 1.908000e+03 1.938000e+03 1.916000e+03
 1.333000e+03 1.287000e+03 1.285000e+03 1.219000e+03 1.142000e+03
 6.700000e+02 6.020000e+02 6.390000e+02 6.680000e+02 6.630000e+02
 5.560000e+02 4.950000e+02 5.240000e+02 5.590000e+02 5.370000e+02
 4.420000e+02 4.810000e+02 4.620000e+02 4.750000e+02 5.160000e+02
 4.400000e+02 4.130000e+02 4.460000e+02 4.290000e+02 4.090000e+02
 3.870000e+02 4.310000e+02 3.760000e+02 3.930000e+02 3.710000e+02
 3.670000e+02 3.320000e+02 3.320000e+02 3.940000e+02 3.670000e+02
 3.530000e+02 3.560000e+02 3.300000e+02 3.410000e+02 3.270000e+02
 2.930000e+02 3.080000e+02 2.660000e+02 2.760000e+02 2.750000e+02
 2.440000e+02 2.750000e+02 2.910000e+02 2.930000e+02 2.560000e+02
 2.990000e+02 2.670000e+02 2.970000e+02 3.010000e+02 3.220000e+02
 3.680000e+02 3.560000e+02 3.480000e+02 3.220000e+02 3.950000e+02
 4.140000e+02 4.040000e+02 4.180000e+02 4.210000e+02 4.410000e+02
 17.8  17.88 17.96 18.04 18.12 18.2  18.28 18.36 18.44 18.52 18.6  18.68
  61.6952  97.6952  137.695  102.695
  1380.7  1408.7  1429.7  1386.7
  638.695  650.695  529.695  483.695
 -113.305]",1610.7,8224.7,-3202.11,1438.17,1.81532,-0.815319,0.163765,0.836235,4.87144,6.04454
 9.1600e+00 9.2400e+00 9.3200e+00 9.4000e+00 9.4800e+00 9.5600e+00
 1.8760e+01 1.8840e+01 1.8920e+01 1.9000e+01 1.9080e+01 1.9160e+01
 2.8360e+01 2.8440e+01 2.8520e+01 2.8600e+01 2.8680e+01 2.8760e+01
 3.7960e+01 3.8040e+01 3.8120e+01 3.8200e+01 3.8280e+01 3.8360e+01
 4.7560e+01 4.7640e+01 4.7720e+01 4.7800e+01 4.7880e+01 4.7960e+01
 5.7160e+01 5.7240e+01 5.7320e+01 5.7400e+01 5.7480e+01 5.7560e+01
 6.6760e+01 6.6840e+01 6.6920e+01 6.7000e+01 6.7080e+01 6.7160e+01
 7.6360e+01 7.6440e+01 7.6520e+01 7.6600e+01 7.6680e+01 7.6760e+01
 8.5960e+01 8.6040e+01 8.6120e+01 8.6200e+01 8.6280e+01 8.6360e+01
 9.5560e+01 9.5640e+01 9.5720e+01 9.5800e+01 9.5880e+01 9.5960e+01
 1.0516e+02 1.0524e+02 1.0532e+02 1.0540e+02 1.0548e+02 1.0556e+02
 1.1476e+02 1.1484e+02 1.1492e+02 1.1500e+02 1.1508e+02 1.1516e+02
 1.2436e+02 1.2444e+02 1.2452e+02 1.2460e+02 1.2468e+02 1.2476e+02
 6.988000e+03 4.951000e+03 2.937000e+03 1.846000e+03 1.489000e+03
 9.660000e+02 1.007000e+03 1.005000e+03 1.014000e+03 1.028000e+03
 2.395000e+03 2.417000e+03 2.426000e+03 2.595000e+03 2.483000e+03
 1.068000e+03 1.015000e+03 1.041000e+03 1.056000e+03 1.017000e+03
 6.940000e+02 7.020000e+02 6.820000e+02 7.040000e+02 7.170000e+02
 5.550000e+02 5.840000e+02 6.400000e+02 6.520000e+02 6.670000e+02
 7.150000e+02 6.640000e+02 6.490000e+02 7.590000e+02 9.290000e+02
 5.040000e+02 4.830000e+02 4.870000e+02 4.880000e+02 5.390000e+02
 4.330000e+02 4.460000e+02 4.800000e+02 5.010000e+02 4.250000e+02
 4.270000e+02 4.880000e+02 4.520000e+02 4.480000e+02 4.450000e+02
 4.320000e+02 4.890000e+02 4.890000e+02 4.470000e+02 4.440000e+02
 3.970000e+02 3.890000e+02 3.630000e+02 3.760000e+02 3.780000e+02
 3.760000e+02 3.890000e+02 3.300000e+02 3.580000e+02 3.650000e+02
 3.740000e+02 3.750000e+02 3.790000e+02 3.420000e+02 4.040000e+02
 4.530000e+02 4.580000e+02 3.950000e+02 4.180000e+02 4.570000e+02
 5.600000e+02 5.470000e+02 5.090000e+02 5.520000e+02 5.510000e+02
 25.48 25.56 25.64 25.72 25.8  25.88 25.96 26.04 26.12 26.2  26.28 26.36
  310.049  312.049  338.049  408.049
  1622.05  1520.05  1639.05  1558.05
  285.049  322.049  237.049  280.049
 2497.05 4593.05 6790.05 7263.05 5404.05
 8.2000e+00 8.2800e+00 8.3600e+00 8.4400e+00 8.5200e+00 8.6000e+00
 1.7800e+01 1.7880e+01 1.7960e+01 1.8040e+01 1.8120e+01 1.8200e+01
 2.7400e+01 2.7480e+01 2.7560e+01 2.7640e+01 2.7720e+01 2.7800e+01
 3.7000e+01 3.7080e+01 3.7160e+01 3.7240e+01 3.7320e+01 3.7400e+01
 4.6600e+01 4.6680e+01 4.6760e+01 4.6840e+01 4.6920e+01 4.7000e+01
 5.6200e+01 5.6280e+01 5.6360e+01 5.6440e+01 5.6520e+01 5.6600e+01
 6.5800e+01 6.5880e+01 6.5960e+01 6.6040e+01 6.6120e+01 6.6200e+01
 7.5400e+01 7.5480e+01 7.5560e+01 7.5640e+01 7.5720e+01 7.5800e+01
 8.5000e+01 8.5080e+01 8.5160e+01 8.5240e+01 8.5320e+01 8.5400e+01
 9.4600e+01 9.4680e+01 9.4760e+01 9.4840e+01 9.4920e+01 9.5000e+01
 1.0420e+02 1.0428e+02 1.0436e+02 1.0444e+02 1.0452e+02 1.0460e+02
 1.1380e+02 1.1388e+02 1.1396e+02 1.1404e+02 1.1412e+02 1.1420e+02
 1.2340e+02 1.2348e+02 1.2356e+02 1.2364e+02 1.2372e+02 1.2380e+02
 6.183200e+04 6.257700e+04 6.308800e+04 6.263500e+04 6.359500e+04
 2.096000e+03 2.144000e+03 2.207000e+03 2.128000e+03 2.138000e+03
 3.681000e+03 3.626000e+03 3.747000e+03 3.687000e+03 3.783000e+03
 2.490000e+03 2.431000e+03 2.415000e+03 2.510000e+03 2.759000e+03
 1.299000e+03 1.422000e+03 1.398000e+03 1.584000e+03 1.392000e+03
 1.152000e+03 1.117000e+03 1.137000e+03 1.221000e+03 1.212000e+03
 1.144000e+03 1.172000e+03 1.100000e+03 1.191000e+03 1.108000e+03
 1.045000e+03 1.020000e+03 9.410000e+02 9.380000e+02 1.018000e+03
 2.023000e+03 2.759000e+03 3.352000e+03 3.103000e+03 2.456000e+03
 1.026000e+03 1.739000e+03 2.331000e+03 2.877000e+03 2.643000e+03
 8.870000e+02 9.270000e+02 9.370000e+02 9.160000e+02 8.580000e+02
 7.260000e+02 7.370000e+02 7.630000e+02 7.400000e+02 7.580000e+02
 6.430000e+02 6.190000e+02 6.070000e+02 6.470000e+02 6.060000e+02
 6.440000e+02 6.770000e+02 6.450000e+02 6.470000e+02 6.550000e+02
 7.050000e+02 7.220000e+02 7.710000e+02 7.140000e+02 7.640000e+02
 8.800000e+02 8.330000e+02 8.320000e+02 8.110000e+02 8.540000e+02
 20.76 20.84 20.92 21.   21.08 21.16 21.24 21.32 21.4  21.48 21.56 21.64
  1095.81  1054.81  980.809  1068.81
  2529.81  2518.81  2462.81  2458.81
  693.809  669.809  644.809  673.809
 37.   37.08 37.16 37.24 37.32 37.4  37.48 37.56 37.64 37.72 37.8  37.88
 5.8000e+00 5.8800e+00 5.9600e+00 6.0400e+00 6.1200e+00 6.2000e+00
 1.5400e+01 1.5480e+01 1.5560e+01 1.5640e+01 1.5720e+01 1.5800e+01
 2.5000e+01 2.5080e+01 2.5160e+01 2.5240e+01 2.5320e+01 2.5400e+01
 3.4600e+01 3.4680e+01 3.4760e+01 3.4840e+01 3.4920e+01 3.5000e+01
 4.4200e+01 4.4280e+01 4.4360e+01 4.4440e+01 4.4520e+01 4.4600e+01
 5.3800e+01 5.3880e+01 5.3960e+01 5.4040e+01 5.4120e+01 5.4200e+01
 6.3400e+01 6.3480e+01 6.3560e+01 6.3640e+01 6.3720e+01 6.3800e+01
 7.3000e+01 7.3080e+01 7.3160e+01 7.3240e+01 7.3320e+01 7.3400e+01
 8.2600e+01 8.2680e+01 8.2760e+01 8.2840e+01 8.2920e+01 8.3000e+01
 9.2200e+01 9.2280e+01 9.2360e+01 9.2440e+01 9.2520e+01 9.2600e+01
 1.0180e+02 1.0188e+02 1.0196e+02 1.0204e+02 1.0212e+02 1.0220e+02
 1.1140e+02 1.1148e+02 1.1156e+02 1.1164e+02 1.1172e+02 1.1180e+02
 1.2100e+02 1.2108e+02 1.2116e+02 1.2124e+02 1.2132e+02 1.2140e+02
 4.38149e+05 4.09961e+05 3.69343e+05 3.13749e+05 2.52651e+05 1.96133e+05
 1.79800e+03 1.87900e+03 1.78100e+03 1.84300e+03 1.69300e+03 1.84400e+03
 3.41900e+03 3.37800e+03 3.43100e+03 3.46300e+03 3.30900e+03 3.39900e+03
 1.45500e+03 1.53700e+03 1.50800e+03 1.53000e+03 1.52600e+03 1.50500e+03
 1.10900e+03 9.90000e+02 1.05000e+03 1.00700e+03 9.96000e+02 1.01200e+03
 9.53000e+02 9.84000e+02 9.74000e+02 9.59000e+02 9.59000e+02 9.44000e+02
 8.84000e+02 9.18000e+02 8.30000e+02 9.62000e+02 8.49000e+02 8.66000e+02
 7.43000e+02 7.20000e+02 7.17000e+02 7.44000e+02 7.62000e+02 8.82000e+02
 7.96000e+02 7.55000e+02 7.05000e+02 7.75000e+02 7.07000e+02 7.67000e+02
 8.91000e+02 7.86000e+02 8.43000e+02 8.18000e+02 7.94000e+02 8.43000e+02
 7.70000e+02 8.72000e+02 8.22000e+02 7.22000e+02 6.18000e+02 6.03000e+02
 5.82000e+02 6.16000e+02 5.70000e+02 6.13000e+02 5.89000e+02 6.15000e+02
 1.39300e+03 8.07000e+02 7.99000e+02 7.26000e+02 7.52000e+02 7.22000e+02
 8.54000e+02 8.19000e+02 8.37000e+02 9.21000e+02 8.40000e+02 8.27000e+02
 26.36 26.44 26.52 26.6  26.68 26.76 26.84 26.92 27.   27.08 27.16 27.24
  725.329  676.329  732.329  766.329
  1839.33  1989.33  1921.33  1983.33
  1223.33  1184.33  1111.33  1045.33
  234.329  245.329  92.3294  163.329
  308.329  1101.33  2990.33  6036.33
  13.04  13.12  13.2   13.28  13.36  13.44  13.52  13.6   13.68  13.76
  29.04  29.12  29.2   29.28  29.36  29.44  29.52  29.6   29.68  29.76
  45.04  45.12  45.2   45.28  45.36  45.44  45.52  45.6   45.68  45.76
  61.04  61.12  61.2   61.28  61.36  61.44  61.52  61.6   61.68  61.76
  77.04  77.12  77.2   77.28  77.36  77.44  77.52  77.6   77.68  77.76
  93.04  93.12  93.2   93.28  93.36  93.44  93.52  93.6   93.68  93.76
 109.04 109.12 109.2  109.28 109.36 109.44 109.52 109.6  109.68 109.76
 125.04 125.12 125.2  125.28 125.36 125.44 125.52 125.6  125.68 125.76
 3.93300e+03 3.86200e+03 3.89800e+03 3.88000e+03 3.91700e+03 4.05100e+03
 4.83400e+03 4.75200e+03 4.73600e+03 4.77300e+03 4.77700e+03 5.00900e+03
 3.51500e+03 3.50300e+03 3.52500e+03 3.40500e+03 3.44700e+03 3.41700e+03
 2.22900e+03 2.23700e+03 2.36100e+03 2.21400e+03 2.23500e+03 2.23200e+03
 1.98500e+03 1.97500e+03 2.01000e+03 2.05100e+03 1.90400e+03 1.95700e+03
 3.32700e+03 3.18800e+03 3.28900e+03 3.09400e+03 3.07200e+03 3.08700e+03
 1.42200e+03 1.52300e+03 1.44000e+03 1.31600e+03 1.47000e+03 1.30700e+03
 1.16000e+03 1.28000e+03 1.24100e+03 1.21600e+03 1.24800e+03 1.18200e+03
 2.53900e+03 2.68300e+03 2.65900e+03 2.55000e+03 2.57600e+03 2.39400e+03
 1.02100e+03 1.02900e+03 9.94000e+02 9.96000e+02 9.66000e+02 9.78000e+02
 1.04600e+03 1.07700e+03 1.11000e+03 1.02100e+03 1.01800e+03 1.01500e+03
 1.07500e+03 1.01400e+03 1.04200e+03 1.06900e+03 1.08900e+03 1.03000e+03
 1.46800e+03 1.32500e+03 1.36800e+03 1.33900e+03 1.40200e+03 1.44600e+03
 21.6  21.68 21.76 21.84 21.92 22.   22.08 22.16 22.24 22.32 22.4  22.48
  916.929  977.929 1009.93 1013.93  924.929
 1807.93 1878.93 1858.93 1721.93 1727.93
 27912.9 41347.9 46191.9 42351.9
  14.04  14.12  14.2   14.28  14.36  14.44  14.52  14.6   14.68  14.76
  30.04  30.12  30.2   30.28  30.36  30.44  30.52  30.6   30.68  30.76
  46.04  46.12  46.2   46.28  46.36  46.44  46.52  46.6   46.68  46.76
  62.04  62.12  62.2   62.28  62.36  62.44  62.52  62.6   62.68  62.76
  78.04  78.12  78.2   78.28  78.36  78.44  78.52  78.6   78.68  78.76
  94.04  94.12  94.2   94.28  94.36  94.44  94.52  94.6   94.68  94.76
 110.04 110.12 110.2  110.28 110.36 110.44 110.52 110.6  110.68 110.76
 126.04 126.12 126.2  126.28 126.36 126.44 126.52 126.6  126.68 126.76
   3246.   3361.   3216.   3458.   3392.   3310.   3384.   3312.   3347.
   2974.   2918.   3077.   3115.   2904.   2964.   3037.   2915.   2870.
  21243.  14797.   8785.   4791.   2742.   2341.   2137.   2140.   2046.
   2459.   2529.   2382.   2373.   2363.   2301.   2303.   2348.   2150.
   1319.   1159.   1206.   1192.   1257.   1274.   1220.   1261.   1168.
   2939.   2875.   2950.   2925.   2888.   2843.   2731.   2769.   2684.
    947.   1020.   1006.   1031.   1015.   1004.   1012.    975.    980.
   1169.   1148.   1115.   1113.   1121.   1097.   1142.   1123.   1097.
 13.96 14.04 14.12 14.2  14.28 14.36 14.44 14.52 14.6  14.68 14.76 14.84
  645.38  643.38  534.38  644.38
  2368.38  2348.38  2288.38  2443.38
  1217.38  1127.38  1129.38  1160.38
 -113.62 -242.62 -128.62 -149.62
   9.44   9.52   9.6    9.68   9.76   9.84   9.92  10.    10.08  10.16
  25.44  25.52  25.6   25.68  25.76  25.84  25.92  26.    26.08  26.16
  41.44  41.52  41.6   41.68  41.76  41.84  41.92  42.    42.08  42.16
  57.44  57.52  57.6   57.68  57.76  57.84  57.92  58.    58.08  58.16
  73.44  73.52  73.6   73.68  73.76  73.84  73.92  74.    74.08  74.16
  89.44  89.52  89.6   89.68  89.76  89.84  89.92  90.    90.08  90.16
 105.44 105.52 105.6  105.68 105.76 105.84 105.92 106.   106.08 106.16
 121.44 121.52 121.6  121.68 121.76 121.84 121.92 122.   122.08 122.16
   4438   4460   4498   4504   4425   4305   4268   4146   3913   3680
   3150   2984   3028   3081   2942   2958   3003   2925   2822   2931
   1790   1841   1906   1837   1934   1936   2031   2150   2166   2448
   1813   1729   1580   1680   1797   1667   1703   1667   1641   1691
   3771   3565   2901   2286   1934   1454   1209   1210   1256   1213
   1427   1373   1363   1384   1379   1500   1354   1323   1335   1259
   1039    963   1025   1000   1083   1033    960    992   1010   1081
   1301   1202   1398   1400   1353   1260   1410   1370   1280   1255
 28.   28.08 28.16 28.24 28.32 28.4  28.48 28.56 28.64 28.72 28.8  28.88
 2245.39 2363.39 2273.39 2426.39 2405.39
  627.393  643.393  688.393  610.393  507.393
 -896.607 -790.607 -922.607 -827.607
  11.24  11.32  11.4   11.48  11.56  11.64  11.72  11.8   11.88  11.96
  27.24  27.32  27.4   27.48  27.56  27.64  27.72  27.8   27.88  27.96
  43.24  43.32  43.4   43.48  43.56  43.64  43.72  43.8   43.88  43.96
  59.24  59.32  59.4   59.48  59.56  59.64  59.72  59.8   59.88  59.96
  75.24  75.32  75.4   75.48  75.56  75.64  75.72  75.8   75.88  75.96
  91.24  91.32  91.4   91.48  91.56  91.64  91.72  91.8   91.88  91.96
 107.24 107.32 107.4  107.48 107.56 107.64 107.72 107.8  107.88 107.96
 123.24 123.32 123.4  123.48 123.56 123.64 123.72 123.8  123.88 123.96
   3435.   3449.   3661.   3630.   3761.   3727.   3540.   3616.   3506.
   2889.   2940.   2840.   2710.   2900.   2767.   2846.   2847.   2739.
   1830.   1803.   1822.   1806.   1911.   1811.   1772.   1691.   1801.
   2119.   2087.   2145.   2095.   2022.   2004.   2047.   2056.   2076.
   1053.   1096.   1117.   1115.   1104.   1054.   1099.   1066.   1000.
   5655.   6217.   9631.  17052.  27836.  39155.  46290.  46616.  40053.
    991.    960.    939.    966.    988.    968.    947.    922.    922.
   1070.   1073.   1052.   1056.   1051.   1099.   1147.   1077.   1032.
   1431.   1382.   1480.   1345.   1561.]","[12.0, 32.0]","[14.5, 16.0]",28026.3,393.032,20.8009,0.0827594,5.30902,0.0892864,2136.62,113.767,3040.72,228,0.0,"[12.04 12.12 12.2  12.28 12.36 12.44 12.52 12.6  12.68 12.76 12.84 12.92
  893.379  824.379  851.379  795.379  833.379
 2329.38 2391.38 2308.38 2384.38 2345.38
  383.379  365.379  376.379  274.379  425.379
  12.24  12.32  12.4   12.48  12.56  12.64  12.72  12.8   12.88  12.96
  28.24  28.32  28.4   28.48  28.56  28.64  28.72  28.8   28.88  28.96
  44.24  44.32  44.4   44.48  44.56  44.64  44.72  44.8   44.88  44.96
  60.24  60.32  60.4   60.48  60.56  60.64  60.72  60.8   60.88  60.96
  76.24  76.32  76.4   76.48  76.56  76.64  76.72  76.8   76.88  76.96
  92.24  92.32  92.4   92.48  92.56  92.64  92.72  92.8   92.88  92.96
 108.24 108.32 108.4  108.48 108.56 108.64 108.72 108.8  108.88 108.96
 124.24 124.32 124.4  124.48 124.56 124.64 124.72 124.8  124.88 124.96
 5.458000e+03 5.432000e+03 5.484000e+03 5.304000e+03 5.362000e+03
 7.289000e+03 7.360000e+03 7.409000e+03 7.398000e+03 7.336000e+03
 5.760000e+03 5.536000e+03 5.561000e+03 5.491000e+03 5.546000e+03
 4.416000e+03 4.510000e+03 4.363000e+03 4.424000e+03 4.447000e+03
 3.326000e+03 3.257000e+03 3.330000e+03 3.297000e+03 3.227000e+03
 3.148000e+03 3.129000e+03 3.227000e+03 3.172000e+03 3.118000e+03
 3.318000e+03 3.301000e+03 3.384000e+03 3.383000e+03 3.509000e+03
 2.472000e+03 2.577000e+03 2.799000e+03 3.297000e+03 5.382000e+03
 2.102000e+03 2.151000e+03 2.181000e+03 2.163000e+03 2.195000e+03
 2.970000e+03 2.940000e+03 3.007000e+03 2.926000e+03 2.873000e+03
 3.488000e+03 3.430000e+03 3.263000e+03 3.249000e+03 3.157000e+03
 1.843000e+03 1.796000e+03 1.887000e+03 1.903000e+03 1.860000e+03
 1.786000e+03 1.928000e+03 1.774000e+03 1.931000e+03 1.794000e+03
 1.962000e+03 2.002000e+03 1.988000e+03 2.025000e+03 2.120000e+03
 2.267000e+03 2.353000e+03 2.432000e+03 2.339000e+03 2.332000e+03
 22.8  22.88 22.96 23.04 23.12 23.2  23.28 23.36 23.44 23.52 23.6  23.68
 3960.3 4095.3 3977.3 4102.3 4057.3
 1204.3 1080.3 1133.3  975.3 1129.3
  2060.3  2142.3  2226.3  2248.3
  14.04  14.12  14.2   14.28  14.36  14.44  14.52  14.6   14.68  14.76
  30.04  30.12  30.2   30.28  30.36  30.44  30.52  30.6   30.68  30.76
  46.04  46.12  46.2   46.28  46.36  46.44  46.52  46.6   46.68  46.76
  62.04  62.12  62.2   62.28  62.36  62.44  62.52  62.6   62.68  62.76
  78.04  78.12  78.2   78.28  78.36  78.44  78.52  78.6   78.68  78.76
  94.04  94.12  94.2   94.28  94.36  94.44  94.52  94.6   94.68  94.76
 110.04 110.12 110.2  110.28 110.36 110.44 110.52 110.6  110.68 110.76
 126.04 126.12 126.2  126.28 126.36 126.44 126.52 126.6  126.68 126.76
 56081. 45151. 33426. 21826. 13542.  9144.  7615.  7753.  7625.  7581.
  3594.  3757.  3564.  3470.  3656.  3496.  3487.  3434.  3514.  3563.
  3407.  3156.  3171.  3199.  3050.  3007.  3156.  3104.  3098.  3163.
  2302.  2290.  2241.  2397.  2317.  2429.  2290.  2174.  2329.  2319.
  2924.  2979.  2900.  2928.  3088.  3055.  3130.  3139.  3294.  3289.
  2007.  2084.  2017.  2192.  2114.  2075.  2100.  2007.  2092.  2071.
  2116.  1978.  2147.  2160.  2103.  2093.  2097.  2190.  2151.  2169.
 17.88 17.96 21.   21.08 21.16 21.24 21.32 21.4  21.48 21.56 21.64 21.72
 1942.64 1872.64 1881.64 1955.64 2036.64
 1299.64 1326.64 1321.64 1319.64 1171.64
 19.   19.08 19.16 19.24 19.32 19.4  19.48 19.56 19.64 19.72 19.8  19.88
  15.04  15.12  15.2   15.28  15.36  15.44  15.52  15.6   15.68  15.76
  31.04  31.12  31.2   31.28  31.36  31.44  31.52  31.6   31.68  31.76
  47.04  47.12  47.2   47.28  47.36  47.44  47.52  47.6   47.68  47.76
  63.04  63.12  63.2   63.28  63.36  63.44  63.52  63.6   63.68  63.76
  79.04  79.12  79.2   79.28  79.36  79.44  79.52  79.6   79.68  79.76
  95.04  95.12  95.2   95.28  95.36  95.44  95.52  95.6   95.68  95.76
 111.04 111.12 111.2  111.28 111.36 111.44 111.52 111.6  111.68 111.76
 127.04 127.12 127.2  127.28 127.36 127.44 127.52 127.6  127.68 127.76
 69538. 65397. 59354. 50081. 38613. 26332. 16419. 10401.  8201.  7664.
  3265.  3285.  3411.  3383.  3274.  3191.  3162.  3163.  3166.  3211.
  5392.  4183.  3534.  3161.  3172.  3063.  3091.  3118.  3096.  3087.
  2342.  2210.  2157.  2138.  2137.  2218.  2260.  2233.  2227.  2195.
  3544.  3612.  3517.  3698.  3750.  3757.  3781.  3848.  3900.  3984.
  2035.  1931.  2134.  2037.  2114.  2198.  2062.  2068.  2162.  2034.
  2277.  2214.  2395.  2218.  2188.  2136.  2177.  2152.  2169.  2263.
 17.76 17.84 17.92 18.   18.08 18.16 18.24 18.32 18.4  18.48 18.56 18.64
  1151.07  1022.07  1100.07  967.073
  3524.07  3708.07  3750.07  3680.07
  981.073  876.073  775.073  683.073
 -94.9269 -268.927 -161.927 -127.927
  10.44  10.52  10.6   10.68  10.76  10.84  10.92  11.    11.08  11.16
  26.44  26.52  26.6   26.68  26.76  26.84  26.92  27.    27.08  27.16
  42.44  42.52  42.6   42.68  42.76  42.84  42.92  43.    43.08  43.16
  58.44  58.52  58.6   58.68  58.76  58.84  58.92  59.    59.08  59.16
  74.44  74.52  74.6   74.68  74.76  74.84  74.92  75.    75.08  75.16
  90.44  90.52  90.6   90.68  90.76  90.84  90.92  91.    91.08  91.16
 106.44 106.52 106.6  106.68 106.76 106.84 106.92 107.   107.08 107.16
 122.44 122.52 122.6  122.68 122.76 122.84 122.92 123.   123.08 123.16
  5114.  5179.  5225.  5176.  5339.  5292.  5428.  5334.  5322.  5339.
  3418.  3405.  3499.  3471.  3350.  3427.  3492.  3404.  3311.  3414.
  3011.  2991.  2950.  2913.  2892.  2880.  2878.  2853.  2931.  2875.
  2563.  2531.  2608.  2529.  2363.  2434.  2293.  2208.  2281.  2306.
  2329.  2346.  2283.  2301.  2225.  2321.  2246.  2394.  2421.  2381.
  2281.  2166.  2254.  2211.  2187.  2194.  2228.  2205.  2250.  2105.
  2504.  2710.  2521.  2635.  2662.  2606.  2671.  2524.  2598.  2462.
 15.   15.08 15.16 15.24 15.32 15.4  15.48 15.56 15.64 15.72 15.8  15.88
 1066.03 1097.03 1039.03 1225.03 1097.03
 1837.03 1766.03 1922.03 1900.03 1797.03
  173.031  271.031  149.031   44.0312  209.031
 69740 68685 64733 61972
  20.24  20.32  20.4   20.48  20.56  20.64  20.72  20.8   20.88  20.96
  36.24  36.32  36.4   36.48  36.56  36.64  36.72  36.8   36.88  36.96
  52.24  52.32  52.4   52.48  52.56  52.64  52.72  52.8   52.88  52.96
  68.24  68.32  68.4   68.48  68.56  68.64  68.72  68.8   68.88  68.96
  84.24  84.32  84.4   84.48  84.56  84.64  84.72  84.8   84.88  84.96
 100.24 100.32 100.4  100.48 100.56 100.64 100.72 100.8  100.88 100.96
 116.24 116.32 116.4  116.48 116.56 116.64 116.72 116.8  116.88 116.96
  3951.  4005.  4189.  4060.  4054.  4085.  4106.  4030.  4156.  4021.
  3949.  4105.  4100.  3980.  4035.  4007.  4057.  3906.  3896.  3903.
  2778.  2807.  2744.  2774.  2807.  2763.  2711.  2705.  2843.  2814.
  2875.  2619.  2680.  2764.  2665.  2628.  2652.  2720.  2629.  2605.
  2106.  2129.  2109.  2018.  2089.  2065.  2228.  2109.  2034.  2195.
  2974.  2985.  3023.  2942.  2890.  2844.  2911.  2887.  2660.  2720.
  2073.  2004.  2033.  1889.  2003.  1951.  2030.  2061.  1974.  1934.
  2445.  2503.  2580.  2510.  2493.  2561.  2485.  2543.  2515.  2519.
 32.4  32.48 32.56 32.64 32.72 32.8  32.88 32.96 33.04 33.12 33.2  33.28
  1928.37  2004.37  1883.37  2035.37
  954.373  891.373  723.373  879.373
 -126.627 -131.627 -39.627 -110.627
  10.84  10.92  11.    11.08  11.16  11.24  11.32  11.4   11.48  11.56
  26.84  26.92  27.    27.08  27.16  27.24  27.32  27.4   27.48  27.56
  42.84  42.92  43.    43.08  43.16  43.24  43.32  43.4   43.48  43.56
  58.84  58.92  59.    59.08  59.16  59.24  59.32  59.4   59.48  59.56
  74.84  74.92  75.    75.08  75.16  75.24  75.32  75.4   75.48  75.56
  90.84  90.92  91.    91.08  91.16  91.24  91.32  91.4   91.48  91.56
 106.84 106.92 107.   107.08 107.16 107.24 107.32 107.4  107.48 107.56
 122.84 122.92 123.   123.08 123.16 123.24 123.32 123.4  123.48 123.56
  5432.  5648.  5587.  5670.  5548.  5667.  5502.  5659.  5493.  5582.
  2907.  3032.  2958.  2988.  2904.  2805.  2866.  2899.  2914.  3048.
  2645.  2655.  2592.  2661.  2666.  2626.  2667.  2612.  2543.  2622.
  2052.  2079.  2165.  2101.  2205.  2054.  2025.  2031.  2133.  2279.
  2582.  2589.  2575.  2515.  2568.  2693.  2579.  2589.  2590.  2655.
  2072.  2052.  2077.  2052.  2033.  2031.  2031.  2086.  2148.  2051.
  2115.  2037.  2138.  2054.  2155.  2212.  2143.  2170.  2168.  2139.
 17.8  17.88 17.96 18.04 18.12 18.2  18.28 18.36 18.44 18.52 18.6  18.68
 1006.29 1015.29  936.293  939.293  868.293
 3021.29 2878.29 2812.29 2942.29 2859.29
  123.293  128.293  239.293   59.2927  121.293
 48831.3 43520.3 35612.3 26036.3
  23.04  23.12  23.2   23.28  23.36  23.44  23.52  23.6   23.68  23.76
  39.04  39.12  39.2   39.28  39.36  39.44  39.52  39.6   39.68  39.76
  55.04  55.12  55.2   55.28  55.36  55.44  55.52  55.6   55.68  55.76
  71.04  71.12  71.2   71.28  71.36  71.44  71.52  71.6   71.68  71.76
  87.04  87.12  87.2   87.28  87.36  87.44  87.52  87.6   87.68  87.76
 103.04 103.12 103.2  103.28 103.36 103.44 103.52 103.6  103.68 103.76
 119.04 119.12 119.2  119.28 119.36 119.44 119.52 119.6  119.68 119.76
  3885.  3999.  4016.  4044.  4027.  4025.  4101.  4155.  4193.  4147.
  3111.  3095.  3146.  3076.  3126.  3065.  2990.  3087.  3050.  2967.
  2515.  2555.  2533.  2575.  2494.  2510.  2492.  2469.  2450.  2524.
  2195.  2189.  2197.  2194.  2146.  2190.  2169.  2134.  2200.  2172.
  2139.  2072.  2154.  2063.  2108.  2016.  2097.  2169.  2040.  2091.
  2108.  2086.  2126.  2123.  2029.  2303.  2588.  3091.  3572.  3827.
  2059.  1980.  1993.  2022.  2027.  2023.  2000.  2003.  1996.  1995.
 16.   16.08 16.16 16.24 16.32 16.4  16.48 16.56 16.64 16.72 16.8  16.88
  699.946  847.946  794.946  838.946
  2281.95  2522.95  2519.95  2434.95
  373.946  555.946  428.946  509.946
 -154.054 -218.054 -176.054 -270.054
  13.64  13.72  13.8   13.88  13.96  14.04  14.12  14.2   14.28  14.36
  29.64  29.72  29.8   29.88  29.96  30.04  30.12  30.2   30.28  30.36
  45.64  45.72  45.8   45.88  45.96  46.04  46.12  46.2   46.28  46.36
  61.64  61.72  61.8   61.88  61.96  62.04  62.12  62.2   62.28  62.36
  77.64  77.72  77.8   77.88  77.96  78.04  78.12  78.2   78.28  78.36
  93.64  93.72  93.8   93.88  93.96  94.04  94.12  94.2   94.28  94.36
 109.64 109.72 109.8  109.88 109.96 110.04 110.12 110.2  110.28 110.36
 125.64 125.72 125.8  125.88 125.96 126.04 126.12 126.2  126.28 126.36
  4506.  4474.  4496.  4296.  4303.  4316.  4055.  4304.  4239.  4165.
  2555.  2463.  2370.  2577.  2492.  2520.  2544.  2494.  2569.  2419.
  2655.  2674.  2630.  2668.  2654.  2589.  2840.  2658.  2719.  2795.
  1875.  1910.  1990.  1936.  2015.  1970.  1943.  2069.  1877.  2007.
  2650.  2608.  2642.  2604.  2603.  2633.  2589.  2723.  2629.  2658.
  1917.  1878.  1864.  1892.  1924.  1936.  1833.  1954.  1945.  1953.
  2181.  2267.  2126.  2253.  2231.  2181.  2308.  2326.  2255.  2308.
 24.6  24.68 24.76 24.84 24.92 25.   25.08 25.16 25.24 25.32 25.4  25.48
 3364.29 3459.29 3465.29 3397.29 3321.29
 32.84 32.92 33.   33.08 33.16 33.24 33.32 33.4  33.48 33.56 33.64 33.72
  1448.29  1611.29  1513.29  1449.29
  25.84  25.92  26.    26.08  26.16  26.24  26.32  26.4   26.48  26.56
  41.84  41.92  42.    42.08  42.16  42.24  42.32  42.4   42.48  42.56
  57.84  57.92  58.    58.08  58.16  58.24  58.32  58.4   58.48  58.56
  73.84  73.92  74.    74.08  74.16  74.24  74.32  74.4   74.48  74.56
  89.84  89.92  90.    90.08  90.16  90.24  90.32  90.4   90.48  90.56
 105.84 105.92 106.   106.08 106.16 106.24 106.32 106.4  106.48 106.56
 121.84 121.92 122.   122.08 122.16 122.24 122.32 122.4  122.48 122.56
  4611.  4550.  4527.  4558.  4647.  4475.  4519.  4658.  4629.  4461.
  2493.  2525.  2458.  2417.  2485.  2491.  2556.  2451.  2368.  2393.
  2348.  2309.  2336.  2354.  2276.  2302.  2455.  2457.  2441.  2432.
  1893.  1876.  1765.  1891.  1895.  1927.  1850.  1864.  1913.  1845.
  2262.  2379.  2368.  2384.  2480.  2437.  2460.  2552.  2422.  2467.
  1870.  1966.  1942.  1952.  1975.  2106.  2289.  2922.  3506.  4331.
  2044.  2005.  2023.  2070.  2024.  2064.  2066.  2074.  2130.  2095.
 22.72 22.8  22.88 22.96 23.04 23.12 23.2  23.28 23.36 23.44 23.52 23.6
 4940.78 4933.78 5073.78 4968.78 5078.78
 4041.78 3935.78 3936.78 3980.78 4066.78]",22377.5,1362.4,33.5538,0.0379058,0.539873,0.0380511,3036.76,261.388,10770.4,47,0.0,"[31.04 31.12 31.2  31.28 31.36 31.44 31.52 31.6  31.68 31.76 31.84 31.92
  16.44  16.52  16.6   16.68  16.76  16.84  16.92  17.    17.08  17.16
  32.44  32.52  32.6   32.68  32.76  32.84  32.92  33.    33.08  33.16
  48.44  48.52  48.6   48.68  48.76  48.84  48.92  49.    49.08  49.16
  64.44  64.52  64.6   64.68  64.76  64.84  64.92  65.    65.08  65.16
  80.44  80.52  80.6   80.68  80.76  80.84  80.92  81.    81.08  81.16
  96.44  96.52  96.6   96.68  96.76  96.84  96.92  97.    97.08  97.16
 112.44 112.52 112.6  112.68 112.76 112.84 112.92 113.   113.08 113.16
 128.44 128.52 128.6  128.68 128.76 128.84 128.92]","[ 2130.  2246.  2170.  2233.  2104.  2143.  2148.  2157.  2060.  2198.
  2938.  2843.  2990.  2955.  2967.  3040.  2910.  2903.  2944.  2854.
  2259.  2150.  2241.  2121.  2219.  2251.  2252.  2254.  2215.  2239.
  2517.  2479.  2652.  2476.  2470.  2527.  2415.  2392.  2296.  2290.
  1854.  1760.  1800.  1776.  1743.  1793.  1709.  1764.  1745.  1764.
  2156.  2117.  2224.  2167.  2093.  2118.  2041.  2172.  2186.  2124.
  1817.  1808.  1980.  1902.  1784.  1938.  1930.  1899.  1918.  1788.
  2480.  2440.  2590.  2488.  2478.  2443.  2468.  2458.  2493.  2446.
 4320.71 4310.71 4371.71 4380.71 4484.71
  3161.71  3807.71  4728.71  6149.71
  22.24  22.32  22.4   22.48  22.56  22.64  22.72  22.8   22.88  22.96
  38.24  38.32  38.4   38.48  38.56  38.64  38.72  38.8   38.88  38.96
  54.24  54.32  54.4   54.48  54.56  54.64  54.72  54.8   54.88  54.96
  70.24  70.32  70.4   70.48  70.56  70.64  70.72  70.8   70.88  70.96
  86.24  86.32  86.4   86.48  86.56  86.64  86.72  86.8   86.88  86.96
 102.24 102.32 102.4  102.48 102.56 102.64 102.72 102.8  102.88 102.96
 118.24 118.32 118.4  118.48 118.56 118.64 118.72 118.8  118.88 118.96
  3629.  3725.  3678.  3774.  3743.  3725.  3755.  3780.  3693.  3825.
  2699.  2857.  3417.  4455.  5701.  7375.  8167.  8380.  8692.  9563.
  2001.  2204.  2070.  2158.  2181.  2108.  2209.  2080.  2102.  2152.
  2324.  2255.  2328.  2316.  2320.  2412.  2339.  2422.  2401.  2279.
  2051.  1937.  1958.  1895.  1980.  1997.  1950.  2057.  2018.  2058.
  1919.  1954.  1746.  1848.  1903.  1931.  1838.  1911.  1884.  1826.
  1934.  1839.  1961.  1812.  1933.  2006.  1947.  1942.  1939.  1926.
 22.8  22.88 22.96 23.04 23.12 23.2  23.28 23.36 23.44 23.52 23.6  23.68
 1149.69 1241.69 1195.69 1193.69 1134.69
  212.686  152.686  181.686  155.686  104.686
  7316.69  4785.69  2364.69  641.686
  28.84  28.92  29.    29.08  29.16  29.24  29.32  29.4   29.48  29.56
  44.84  44.92  45.    45.08  45.16  45.24  45.32  45.4   45.48  45.56
  60.84  60.92  61.    61.08  61.16  61.24  61.32  61.4   61.48  61.56
  76.84  76.92  77.    77.08  77.16  77.24  77.32  77.4   77.48  77.56
  92.84  92.92  93.    93.08  93.16  93.24  93.32  93.4   93.48  93.56
 108.84 108.92 109.   109.08 109.16 109.24 109.32 109.4  109.48 109.56
 124.84 124.92 125.   125.08 125.16 125.24 125.32 125.4  125.48 125.56
  2878.  2850.  2863.  2806.  2754.  2814.  2802.  2706.  2743.  2798.
  2173.  2240.  2158.  2021.  2129.  2114.  2179.  2135.  2137.  2141.
  2469.  2445.  2515.  2459.  2596.  2543.  2576.  2383.  2512.  2586.
  1658.  1642.  1514.  1722.  1810.  1612.  1729.  1608.  1729.  1567.
  2208.  2200.  2195.  2110.  2153.  2117.  2136.  2113.  2114.  1997.
  1779.  1713.  1747.  1740.  1717.  1742.  1792.  1660.  1790.  1881.
  2385.  2290.  2310.  2231.  2302.  2271.  2305.  2399.  2386.  2390.
  923.184 1041.18  990.184  983.184  945.184
  303.184  175.184  140.184   32.1836   10.1836
  18.64  18.72  18.8   18.88  18.96  19.04  19.12  19.2   19.28  19.36
  34.64  34.72  34.8   34.88  34.96  35.04  35.12  35.2   35.28  35.36
  50.64  50.72  50.8   50.88  50.96  51.04  51.12  51.2   51.28  51.36
  66.64  66.72  66.8   66.88  66.96  67.04  67.12  67.2   67.28  67.36
  82.64  82.72  82.8   82.88  82.96  83.04  83.12  83.2   83.28  83.36
  98.64  98.72  98.8   98.88  98.96  99.04  99.12  99.2   99.28  99.36
 114.64 114.72 114.8  114.88 114.96 115.04 115.12 115.2  115.28 115.36
  1486.  1530.  1564.  1599.  1481.  1633.  1546.  1668.  1510.  1592.
  2198.  2199.  2237.  2220.  2257.  2187.  2175.  2288.  2220.  2183.
  2034.  1957.  2049.  2024.  1994.  2051.  2067.  2016.  2117.  1901.
  2013.  2074.  1964.  2034.  2047.  2039.  2123.  2044.  2028.  2076.
  1893.  1935.  1818.  1981.  1968.  1960.  1889.  1821.  1787.  1783.
  1835.  1809.  1793.  1884.  1762.  1842.  1855.  1750.  1857.  1769.
  1828.  1928.  1938.  1815.  1942.  1984.  1784.  1852.  1834.  1899.
 23.84 23.92 24.   24.08 24.16 24.24 24.32 24.4  24.48 24.56 24.64 24.72
  463.375  393.375  420.375  399.375  550.375
 -159.625 -219.625 -242.625 -299.625 -312.625
  32.44  32.52  32.6   32.68  32.76  32.84  32.92  33.    33.08  33.16
  48.44  48.52  48.6   48.68  48.76  48.84  48.92  49.    49.08  49.16
  64.44  64.52  64.6   64.68  64.76  64.84  64.92  65.    65.08  65.16
  80.44  80.52  80.6   80.68  80.76  80.84  80.92  81.    81.08  81.16
  96.44  96.52  96.6   96.68  96.76  96.84  96.92  97.    97.08  97.16
 112.44 112.52 112.6  112.68 112.76 112.84 112.92 113.   113.08 113.16
 128.44 128.52 128.6  128.68 128.76 128.84 128.92]","[1331. 1464. 1582. 1379. 1610. 1250. 1247. 1367. 1426. 1313. 1353. 1384.
 2195. 2000. 2123. 2080. 2096. 2121. 2087. 2116. 1994. 1982. 1990. 1961.
 1982. 1936. 2019. 1947. 2035. 2019. 1975. 2095. 2015. 2003. 2051. 2001.
 1453. 1562. 1547. 1529. 1426. 1593. 1476. 1474. 1413. 1583. 1504. 1452.
 1856. 1885. 1902. 1906. 1980. 1874. 2056. 1876. 1792. 1837. 1861. 1792.
 3232. 3113. 2795. 2389. 2181. 1995. 1850. 1819. 1826. 1850. 1850. 1802.
 26.36 26.44 26.52 26.6  26.68 26.76 26.84 26.92 27.   27.08 27.16 27.24
 43.88 43.96 44.04 44.12 44.2  44.28 44.36 44.44 44.52 44.6  44.68 44.76
  25.44  25.52  25.6   25.68  25.76  25.84  25.92  26.    26.08  26.16
  41.44  41.52  41.6   41.68  41.76  41.84  41.92  42.    42.08  42.16
  57.44  57.52  57.6   57.68  57.76  57.84  57.92  58.    58.08  58.16
  73.44  73.52  73.6   73.68  73.76  73.84  73.92  74.    74.08  74.16
  89.44  89.52  89.6   89.68  89.76  89.84  89.92  90.    90.08  90.16
 105.44 105.52 105.6  105.68 105.76 105.84 105.92 106.   106.08 106.16
 121.44 121.52 121.6  121.68 121.76 121.84 121.92 122.   122.08 122.16
 2187. 2257. 2251. 2106. 2240. 2172. 2214. 2192. 2118. 2313. 2234. 2198.
 1901. 2022. 1932. 1909. 1976. 1931. 1854. 1905. 1926. 1885. 1866. 1925.
 3032. 3246. 3258. 3513. 3723. 3608. 3567. 3496. 3196. 2811. 2370. 2156.
 2045. 1934. 2063. 2019. 1959. 2111. 2035. 2117. 2017. 2059. 1952. 1954.
 1763. 1677. 1610. 1743. 1528. 1804. 1548. 1686. 1659. 1785. 1764. 1704.
 2266. 2253. 2263. 2278. 2346. 2373. 2255. 2295. 2295. 2370. 2407. 2396.
  214.879   49.8785  130.879  134.879  142.879
  23.24  23.32  23.4   23.48  23.56  23.64  23.72  23.8   23.88  23.96
  39.24  39.32  39.4   39.48  39.56  39.64  39.72  39.8   39.88  39.96
  55.24  55.32  55.4   55.48  55.56  55.64  55.72  55.8   55.88  55.96
  71.24  71.32  71.4   71.48  71.56  71.64  71.72  71.8   71.88  71.96
  87.24  87.32  87.4   87.48  87.56  87.64  87.72  87.8   87.88  87.96
 103.24 103.32 103.4  103.48 103.56 103.64 103.72 103.8  103.88 103.96
 119.24 119.32 119.4  119.48 119.56 119.64 119.72 119.8  119.88 119.96
 2230. 2211. 2267. 2247. 2093. 2162. 2191. 2051. 2118. 2138. 2237. 2079.
 3213. 4204. 5268. 6004. 6618. 7505. 7782. 7987. 8172. 8333. 8181. 7427.
 2054. 2079. 2000. 1958. 2038. 1937. 1889. 2009. 1963. 1912. 1964. 1972.
 1450. 1662. 1669. 1789. 1916. 1908. 1960. 2233. 2275. 2473. 2639. 2596.
 1644. 1669. 1716. 1544. 1487. 1539. 1629. 1419. 1637. 1563. 1679. 1654.
 2100. 1979. 2062. 2112. 2004. 2062. 2098. 2084. 1960. 2126. 2161. 2085.
  394.754  929.754 1920.75 2984.75 3720.75
  32.24  32.32  32.4   32.48  32.56  32.64  32.72  32.8   32.88  32.96
  48.24  48.32  48.4   48.48  48.56  48.64  48.72  48.8   48.88  48.96
  64.24  64.32  64.4   64.48  64.56  64.64  64.72  64.8   64.88  64.96
  80.24  80.32  80.4   80.48  80.56  80.64  80.72  80.8   80.88  80.96
  96.24  96.32  96.4   96.48  96.56  96.64  96.72  96.8   96.88  96.96
 112.24 112.32 112.4  112.48 112.56 112.64 112.72 112.8  112.88 112.96
 128.24 128.32 128.4  128.48 128.56 128.64 128.72 128.8  128.88 128.96]","[1066. 1068. 1103. 1091. 1088. 1042. 1013. 1060. 1022. 1022. 1035. 1091.
 1775. 1712. 1741. 1784. 1788. 1844. 1670. 1802. 1756. 1790. 1799. 1765.
 1960. 2018. 2050. 2016. 1962. 1953. 2038. 1981. 1946. 2058. 2075. 2099.
 1362. 1472. 1397. 1379. 1260. 1304. 1410. 1459. 1250. 1336. 1420. 1412.
 1710. 1712. 1772. 1691. 1808. 1614. 1706. 1733. 1766. 1787. 1691. 1785.
 1679. 1782. 1652. 1727. 1783. 1748. 1786. 1840. 1757. 1780. 1814. 1812.
  305.969  314.969  393.969  397.969  443.969
   34.9693  -75.0307  -45.0307]",766.969,5353.97,-8844.66,-481.174,0.948404,0.0515958,0.125303,0.874697,131.345,147.197