File: Data Files/Full/p csv/Processed_XRD_Data_safe.csv
omega,Position,Intensity,amorphous_range,crystalline_range,amorphous_fit,crystalline_fit,amorphous_area,crystalline_area,amorphous_percentage,crystalline_percentage,effective_depth
15.0,"No.
1        11.04
2        11.12
3        11.20
4        11.28
5        11.36
         ...
1471    128.64
1472    128.72
1473    128.80
1474    128.88
1475    128.96
Name: Pos. [°2θ], Length: 1475, dtype: float64","No.
1       2992.0
2       2856.0
3       2908.0
4       2997.0
5       2946.0
         ...
1471    2680.0
1472    2781.0
1473    2722.0
1474    2708.0
1475    2764.0
Name: Intensity [Counts], Length: 1475, dtype: float64","[20.0, 30.0]","[28.5, 30.5]","{'amplitude': -5162.5, 'mean': 27.5949, 'std_dev': 1.85056, 'background': 5246.07, 'uncertainty': array([344.289, 0.107843, 0.107173, 18.7058]), 'amorphous_x_range_used': [20.0, 20.08, 20.16, 20.24, 20.32, 20.4, 20.48, 20.56, 20.64, 20.72, 20.8, 20.88, 20.96, 21.04, 21.12, 21.2, 21.28, 21.36, 21.44, 21.52, 21.6, 21.68, 21.76, 21.84, 21.92, 22, 22.08, 22.16, 22.24, 22.32, 22.4, 22.48, 22.56, 22.64, 22.72, 22.8, 22.88, 22.96, 23.04, 23.12, 23.2, 23.28, 23.36, 23.44, 23.52, 23.6, 23.68, 23.76, 23.84, 23.92, 24, 24.08, 24.16, 24.24, 24.32, 24.4, 24.48, 24.56, 24.64, 24.72, 24.8, 24.88, 24.96, 25.04, 25.12, 25.2, 25.28, 25.36, 25.44, 25.52, 25.6, 25.68, 25.76, 25.84, 25.92, 26, 26.08, 26.16, 26.24, 26.32, 26.4, 26.48, 26.56, 26.64, 26.72, 26.8, 26.88, 26.96, 27.04, 27.12, 27.2, 27.28, 27.36, 27.44, 27.52, 27.6, 27.68, 27.76, 27.84, 27.92, 28, 28.08, 28.16, 28.24, 28.32, 28.4, 28.48], 'amorphous_y_range_used': No.
113    4978.0
114    4975.0
115    4977.0
116    4985.0
117    5102.0
        ...
215    4116.0
216    4210.0
217    4195.0
218    4247.0
219    4198.0
Name: Intensity [Counts], Length: 107, dtype: float64}","{'amplitude': 45897.4, 'mean': 29.4477, 'std_dev': 0.342079, 'background': 398.319, 'uncertainty': array([3820.18, 0.0115673, 0.0203403, 2037.73]), 'crystalline_x_range_used': [28.64, 28.72, 28.8, 28.88, 28.96, 29.04, 29.12, 29.2, 29.28, 29.36, 29.44, 29.52, 29.6, 29.68, 29.76, 29.84, 29.92, 30, 30.08, 30.16, 30.24, 30.32, 30.4, 30.48], 'crystalline_y_range_used': No.
220     4557.0
221     4595.0
222     5290.0
223     8681.0
224    15436.0
225    26700.0
226    39847.0
227    48102.0
228    51105.0
229    50832.0
230    49789.0
231    48030.0
232    46372.0
233    43969.0
234    38999.0
235    31080.0
236    22767.0
237    13976.0
238     7836.0
239     4851.0
240     4210.0
241     4117.0
242     4036.0
243     3888.0
Name: Intensity [Counts], dtype: float64}",40957,46138.9,0.887689,0.112311,81.082
14.0,"No.
1        10.04
2        10.12
3        10.20
4        10.28
5        10.36
         ...
1483    128.60
1484    128.68
1485    128.76
1486    128.84
1487    128.92
Name: Pos. [°2θ], Length: 1487, dtype: float64","No.
1       3243.0
2       3291.0
3       3348.0
4       3458.0
5       3171.0
         ...
1483    2701.0
1484    2819.0
1485    2715.0
1486    2682.0
1487    2647.0
Name: Intensity [Counts], Length: 1487, dtype: float64","[13.0, 38.0]","[26.5, 28.5]","{'amplitude': 33551.3, 'mean': 22.5653, 'std_dev': 4.9001, 'background': 2942.01, 'uncertainty': array([541.963, 0.0327856, 0.0543262, 20.1149]), 'amorphous_x_range_used': [13.0, 13.08, 13.16, 13.24, 13.32, 13.4, 13.48, 13.56, 13.64, 13.72, 13.8, 13.88, 13.96, 14.04, 14.12, 14.2, 14.28, 14.36, 14.44, 14.52, 14.6, 14.68, 14.76, 14.84, 14.92, 15, 15.08, 15.16, 15.24, 15.32, 15.4, 15.48, 15.56, 15.64, 15.72, 15.8, 15.88, 15.96, 16.04, 16.12, 16.2, 16.28, 16.36, 16.44, 16.52, 16.6, 16.68, 16.76, 16.84, 16.92, 17, 17.08, 17.16, 17.24, 17.32, 17.4, 17.48, 17.56, 17.64, 17.72, 17.8, 17.88, 17.96, 18.04, 18.12, 18.2, 18.28, 18.36, 18.44, 18.52, 18.6, 18.68, 18.76, 18.84, 18.92, 19, 19.08, 19.16, 19.24, 19.32, 19.4, 19.48, 19.56, 19.64, 19.72, 19.8, 19.88, 19.96, 20.04, 20.12, 20.2, 20.28, 20.36, 20.44, 20.52, 20.6, 20.68, 20.76, 20.84, 20.92, 21, 21.08, 21.16, 21.24, 21.32, 21.4, 21.48, 21.56, 21.64, 21.72, 21.8, 21.88, 21.96, 22.04, 22.12, 22.2, 22.28, 22.36, 22.44, 22.52, 22.6, 22.68, 22.76, 22.84, 22.92, 23, 23.08, 23.16, 23.24, 23.32, 23.4, 23.48, 23.56, 23.64, 23.72, 23.8, 23.88, 23.96, 24.04, 24.12, 24.2, 24.28, 24.36, 24.44, 24.52, 24.6, 24.68, 24.76, 24.84, 24.92, 25, 25.08, 25.16, 25.24, 25.32, 25.4, 25.48, 25.56, 25.64, 25.72, 25.8, 25.88, 25.96, 26.04, 26.12, 26.2, 26.28, 26.36, 26.44, 28.44, 28.52, 28.6, 28.68, 28.76, 28.84, 28.92, 29, 29.08, 29.16, 29.24, 29.32, 29.4, 29.48, 29.56, 29.64, 29.72, 29.8, 29.88, 29.96, 30.04, 30.12, 30.2, 30.28, 30.36, 30.44, 30.52, 30.6, 30.68, 30.76, 30.84, 30.92, 31, 31.08, 31.16, 31.24, 31.32, 31.4, 31.48, 31.56, 31.64, 31.72, 31.8, 31.88, 31.96, 32.04, 32.12, 32.2, 32.28, 32.36, 32.44, 32.52, 32.6, 32.68, 32.76, 32.84, 32.92, 33, 33.08, 33.16, 33.24, 33.32, 33.4, 33.48, 33.56, 33.64, 33.72, 33.8, 33.88, 33.96, 34.04, 34.12, 34.2, 34.28, 34.36, 34.44, 34.52, 34.6, 34.68, 34.76, 34.84, 34.92, 35, 35.08, 35.16, 35.24, 35.32, 35.4, 35.48, 35.56, 35.64, 35.72, 35.8, 35.88, 35.96, 36.04, 36.12, 36.2, 36.28, 36.36, 36.44, 36.52, 36.6, 36.68, 36.76, 36.84, 36.92, 37, 37.08, 37.16, 37.24, 37.32, 37.4, 37.48, 37.56, 37.64, 37.72, 37.8, 37.88], 'amorphous_y_range_used': No.
38     3226.0
39     3153.0
40     3210.0
41     3157.0
42     3295.0
        ...
346    2819.0
347    2911.0
348    2855.0
349    2837.0
350    2818.0
Name: Intensity [Counts], Length: 288, dtype: float64}","{'amplitude': 51651, 'mean': 27.3569, 'std_dev': 0.336298, 'background': 769.503, 'uncertainty': array([4056.08, 0.0108443, 0.019023, 2184.89]), 'crystalline_x_range_used': [26.52, 26.6, 26.68, 26.76, 26.84, 26.92, 27, 27.08, 27.16, 27.24, 27.32, 27.4, 27.48, 27.56, 27.64, 27.72, 27.8, 27.88, 27.96, 28.04, 28.12, 28.2, 28.28, 28.36], 'crystalline_y_range_used': No.
207     5331.0
208     5502.0
209     5601.0
210     7760.0
211    14147.0
212    24170.0
213    39524.0
214    51594.0
215    57244.0
216    60029.0
217    58493.0
218    55838.0
219    53783.0
220    51768.0
221    46457.0
222    38549.0
223    28973.0
224    19330.0
225    11056.0
226     6398.0
227     5080.0
228     4755.0
229     4625.0
230     4600.0
Name: Intensity [Counts], dtype: float64}",105863,52647.5,0.502684,0.497316,79.8427
13.0,"No.
1         9.04
2         9.12
3         9.20
4         9.28
5         9.36
         ...
1496    128.64
1497    128.72
1498    128.80
1499    128.88
1500    128.96
Name: Pos. [°2θ], Length: 1500, dtype: float64","No.
1       3627.0
2       3647.0
3       3682.0
4       3680.0
5       3786.0
         ...
1496    2814.0
1497    2742.0
1498    2673.0
1499    2677.0
1500    2740.0
Name: Intensity [Counts], Length: 1500, dtype: float64","[13.0, 36.0]","[24.5, 26.5]","{'amplitude': 33003.7, 'mean': 22.2482, 'std_dev': 4.44185, 'background': 3238.34, 'uncertainty': array([713.942, 0.0394025, 0.0649273, 29.5993]), 'amorphous_x_range_used': [13.04, 13.12, 13.2, 13.28, 13.36, 13.44, 13.52, 13.6, 13.68, 13.76, 13.84, 13.92, 14.0, 14.08, 14.16, 14.24, 14.32, 14.4, 14.48, 14.56, 14.64, 14.72, 14.8, 14.88, 14.96, 15.04, 15.12, 15.2, 15.28, 15.36, 15.44, 15.52, 15.6, 15.68, 15.76, 15.84, 15.92, 16.0, 16.08, 16.16, 16.24, 16.32, 16.4, 16.48, 16.56, 16.64, 16.72, 16.8, 16.88, 16.96, 17.04, 17.12, 17.2, 17.28, 17.36, 17.44, 17.52, 17.6, 17.68, 17.76, 17.84, 17.92, 18, 18.08, 18.16, 18.24, 18.32, 18.4, 18.48, 18.56, 18.64, 18.72, 18.8, 18.88, 18.96, 19.04, 19.12, 19.2, 19.28, 19.36, 19.44, 19.52, 19.6, 19.68, 19.76, 19.84, 19.92, 20, 20.08, 20.16, 20.24, 20.32, 20.4, 20.48, 20.56, 20.64, 20.72, 20.8, 20.88, 20.96, 21.04, 21.12, 21.2, 21.28, 21.36, 21.44, 21.52, 21.6, 21.68, 21.76, 21.84, 21.92, 22, 22.08, 22.16, 22.24, 22.32, 22.4, 22.48, 22.56, 22.64, 22.72, 22.8, 22.88, 22.96, 23.04, 23.12, 23.2, 23.28, 23.36, 23.44, 23.52, 23.6, 23.68, 23.76, 23.84, 23.92, 24, 24.08, 24.16, 24.24, 24.32, 24.4, 24.48, 26.48, 26.56, 26.64, 26.72, 26.8, 26.88, 26.96, 27.04, 27.12, 27.2, 27.28, 27.36, 27.44, 27.52, 27.6, 27.68, 27.76, 27.84, 27.92, 28, 28.08, 28.16, 28.24, 28.32, 28.4, 28.48, 28.56, 28.64, 28.72, 28.8, 28.88, 28.96, 29.04, 29.12, 29.2, 29.28, 29.36, 29.44, 29.52, 29.6, 29.68, 29.76, 29.84, 29.92, 30, 30.08, 30.16, 30.24, 30.32, 30.4, 30.48, 30.56, 30.64, 30.72, 30.8, 30.88, 30.96, 31.04, 31.12, 31.2, 31.28, 31.36, 31.44, 31.52, 31.6, 31.68, 31.76, 31.84, 31.92, 32, 32.08, 32.16, 32.24, 32.32, 32.4, 32.48, 32.56, 32.64, 32.72, 32.8, 32.88, 32.96, 33.04, 33.12, 33.2, 33.28, 33.36, 33.44, 33.52, 33.6, 33.68, 33.76, 33.84, 33.92, 34, 34.08, 34.16, 34.24, 34.32, 34.4, 34.48, 34.56, 34.64, 34.72, 34.8, 34.88, 34.96, 35.04, 35.12, 35.2, 35.28, 35.36, 35.44, 35.52, 35.6, 35.68, 35.76, 35.84, 35.92], 'amorphous_y_range_used': No.
51     3951.0
52     4005.0
53     4189.0
54     4060.0
55     4054.0
        ...
334    3156.0
335    2987.0
336    3126.0
337    3216.0
338    3063.0
Name: Intensity [Counts], Length: 263, dtype: float64}","{'amplitude': 55249.6, 'mean': 25.3432, 'std_dev': 0.323515, 'background': 2034.45, 'uncertainty': array([3871.71, 0.0104195, 0.0168337, 2125.16]), 'crystalline_x_range_used': [24.56, 24.64, 24.72, 24.8, 24.88, 24.96, 25.04, 25.12, 25.2, 25.28, 25.36, 25.44, 25.52, 25.6, 25.68, 25.76, 25.84, 25.92, 26, 26.08, 26.16, 26.24, 26.32, 26.4], 'crystalline_y_range_used': No.
195     6577.0
196     6683.0
197     7424.0
198    12061.0
199    21531.0
200    36089.0
201    52212.0
202    63496.0
203    67153.0
204    68170.0
205    64079.0
206    61208.0
207    58740.0
208    53769.0
209    45245.0
210    35294.0
211    24280.0
212    15196.0
213     8521.0
214     6137.0
215     5503.0
216     5420.0
217     5437.0
218     5280.0
Name: Intensity [Counts], dtype: float64}",106397,58519.1,0.449991,0.550009,74.7892
12.0,"No.
1         8.04
2         8.12
3         8.20
4         8.28
5         8.36
         ...
1508    128.60
1509    128.68
1510    128.76
1511    128.84
1512    128.92
Name: Pos. [°2θ], Length: 1512, dtype: float64","No.
1       4210.0
2       4212.0
3       4042.0
4       4206.0
5       4157.0
         ...
1508    2742.0
1509    2703.0
1510    2794.0
1511    2765.0
1512    2766.0
Name: Intensity [Counts], Length: 1512, dtype: float64","[12.0, 32.0]","[22.5, 24.5]","{'amplitude': 22079.3, 'mean': 22.0057, 'std_dev': 3.14691, 'background': 4093.27, 'uncertainty': array([579.749, 0.0438578, 0.0651992, 31.641]), 'amorphous_x_range_used': [12.04, 12.12, 12.2, 12.28, 12.36, 12.44, 12.52, 12.6, 12.68, 12.76, 12.84, 12.92, 13.0, 13.08, 13.16, 13.24, 13.32, 13.4, 13.48, 13.56, 13.64, 13.72, 13.8, 13.88, 13.96, 14.04, 14.12, 14.2, 14.28, 14.36, 14.44, 14.52, 14.6, 14.68, 14.76, 14.84, 14.92, 15, 15.08, 15.16, 15.24, 15.32, 15.4, 15.48, 15.56, 15.64, 15.72, 15.8, 15.88, 15.96, 16.04, 16.12, 16.2, 16.28, 16.36, 16.44, 16.52, 16.6, 16.68, 16.76, 16.84, 16.92, 17, 17.08, 17.16, 17.24, 17.32, 17.4, 17.48, 17.56, 17.64, 17.72, 17.8, 17.88, 17.96, 18.04, 18.12, 18.2, 18.28, 18.36, 18.44, 18.52, 18.6, 18.68, 18.76, 18.84, 18.92, 19, 19.08, 19.16, 19.24, 19.32, 19.4, 19.48, 19.56, 19.64, 19.72, 19.8, 19.88, 19.96, 20.04, 20.12, 20.2, 20.28, 20.36, 20.44, 20.52, 20.6, 20.68, 20.76, 20.84, 20.92, 21, 21.08, 21.16, 21.24, 21.32, 21.4, 21.48, 21.56, 21.64, 21.72, 21.8, 21.88, 21.96, 22.04, 22.12, 22.2, 22.28, 22.36, 22.44, 24.44, 24.52, 24.6, 24.68, 24.76, 24.84, 24.92, 25, 25.08, 25.16, 25.24, 25.32, 25.4, 25.48, 25.56, 25.64, 25.72, 25.8, 25.88, 25.96, 26.04, 26.12, 26.2, 26.28, 26.36, 26.44, 26.52, 26.6, 26.68, 26.76, 26.84, 26.92, 27, 27.08, 27.16, 27.24, 27.32, 27.4, 27.48, 27.56, 27.64, 27.72, 27.8, 27.88, 27.96, 28.04, 28.12, 28.2, 28.28, 28.36, 28.44, 28.52, 28.6, 28.68, 28.76, 28.84, 28.92, 29, 29.08, 29.16, 29.24, 29.32, 29.4, 29.48, 29.56, 29.64, 29.72, 29.8, 29.88, 29.96, 30.04, 30.12, 30.2, 30.28, 30.36, 30.44, 30.52, 30.6, 30.68, 30.76, 30.84, 30.92, 31, 31.08, 31.16, 31.24, 31.32, 31.4, 31.48, 31.56, 31.64, 31.72, 31.8, 31.88], 'amorphous_y_range_used': No.
51     4505.0
52     4448.0
53     4432.0
54     4391.0
55     4581.0
        ...
296    3717.0
297    3546.0
298    3716.0
299    3735.0
300    3658.0
Name: Intensity [Counts], Length: 225, dtype: float64}","{'amplitude': 58013.2, 'mean': 23.3519, 'std_dev': 0.318553, 'background': 2950.48, 'uncertainty': array([4104.63, 0.0103092, 0.0168248, 2273.62]), 'crystalline_x_range_used': [22.52, 22.6, 22.68, 22.76, 22.84, 22.92, 23, 23.08, 23.16, 23.24, 23.32, 23.4, 23.48, 23.56, 23.64, 23.72, 23.8, 23.88, 23.96, 24.04, 24.12, 24.2, 24.28, 24.36], 'crystalline_y_range_used': No.
182     7601.0
183     7590.0
184     7782.0
185     9361.0
186    16069.0
187    27637.0
188    45615.0
189    61199.0
190    70572.0
191    72981.0
192    71926.0
193    67974.0
194    65213.0
195    61552.0
196    54047.0
197    44919.0
198    32676.0
199    21293.0
200    12464.0
201     8252.0
202     6864.0
203     6696.0
204     6605.0
205     6537.0
Name: Intensity [Counts], dtype: float64}",103123,63122.5,0.387889,0.612111,69.7303
11.0,"No.
1         7.04
2         7.12
3         7.20
4         7.28
5         7.36
         ...
1521    128.64
1522    128.72
1523    128.80
1524    128.88
1525    128.96
Name: Pos. [°2θ], Length: 1525, dtype: float64","No.
1       4824.0
2       4716.0
3       4652.0
4       4654.0
5       4632.0
         ...
1521    2800.0
1522    2742.0
1523    2725.0
1524    2902.0
1525    2780.0
Name: Intensity [Counts], Length: 1525, dtype: float64","[11.0, 37.0]","[20.0, 23.0]","{'amplitude': 41032.8, 'mean': 21.2973, 'std_dev': 5.12405, 'background': 3511.37, 'uncertainty': array([1292.42, 0.0604967, 0.123198, 48.8665]), 'amorphous_x_range_used': [11.04, 11.12, 11.2, 11.28, 11.36, 11.44, 11.52, 11.6, 11.68, 11.76, 11.84, 11.92, 12.0, 12.08, 12.16, 12.24, 12.32, 12.4, 12.48, 12.56, 12.64, 12.72, 12.8, 12.88, 12.96, 13.04, 13.12, 13.2, 13.28, 13.36, 13.44, 13.52, 13.6, 13.68, 13.76, 13.84, 13.92, 14, 14.08, 14.16, 14.24, 14.32, 14.4, 14.48, 14.56, 14.64, 14.72, 14.8, 14.88, 14.96, 15.04, 15.12, 15.2, 15.28, 15.36, 15.44, 15.52, 15.6, 15.68, 15.76, 15.84, 15.92, 16, 16.08, 16.16, 16.24, 16.32, 16.4, 16.48, 16.56, 16.64, 16.72, 16.8, 16.88, 16.96, 17.04, 17.12, 17.2, 17.28, 17.36, 17.44, 17.52, 17.6, 17.68, 17.76, 17.84, 17.92, 18, 18.08, 18.16, 18.24, 18.32, 18.4, 18.48, 18.56, 18.64, 18.72, 18.8, 18.88, 18.96, 19.04, 19.12, 19.2, 19.28, 19.36, 19.44, 19.52, 19.6, 19.68, 19.76, 19.84, 19.92, 22.96, 23.04, 23.12, 23.2, 23.28, 23.36, 23.44, 23.52, 23.6, 23.68, 23.76, 23.84, 23.92, 24, 24.08, 24.16, 24.24, 24.32, 24.4, 24.48, 24.56, 24.64, 24.72, 24.8, 24.88, 24.96, 25.04, 25.12, 25.2, 25.28, 25.36, 25.44, 25.52, 25.6, 25.68, 25.76, 25.84, 25.92, 26, 26.08, 26.16, 26.24, 26.32, 26.4, 26.48, 26.56, 26.64, 26.72, 26.8, 26.88, 26.96, 27.04, 27.12, 27.2, 27.28, 27.36, 27.44, 27.52, 27.6, 27.68, 27.76, 27.84, 27.92, 28, 28.08, 28.16, 28.24, 28.32, 28.4, 28.48, 28.56, 28.64, 28.72, 28.8, 28.88, 28.96, 29.04, 29.12, 29.2, 29.28, 29.36, 29.44, 29.52, 29.6, 29.68, 29.76, 29.84, 29.92, 30, 30.08, 30.16, 30.24, 30.32, 30.4, 30.48, 30.56, 30.64, 30.72, 30.8, 30.88, 30.96, 31.04, 31.12, 31.2, 31.28, 31.36, 31.44, 31.52, 31.6, 31.68, 31.76, 31.84, 31.92, 32, 32.08, 32.16, 32.24, 32.32, 32.4, 32.48, 32.56, 32.64, 32.72, 32.8, 32.88, 32.96, 33.04, 33.12, 33.2, 33.28, 33.36, 33.44, 33.52, 33.6, 33.68, 33.76, 33.84, 33.92, 34, 34.08, 34.16, 34.24, 34.32, 34.4, 34.48, 34.56, 34.64, 34.72, 34.8, 34.88, 34.96, 35.04, 35.12, 35.2, 35.28, 35.36, 35.44, 35.52, 35.6, 35.68, 35.76, 35.84, 35.92, 36, 36.08, 36.16, 36.24, 36.32, 36.4, 36.48, 36.56, 36.64, 36.72, 36.8, 36.88], 'amorphous_y_range_used': No.
51     4770.0
52     4866.0
53     4964.0
54     4844.0
55     4867.0
        ...
371    3412.0
372    3434.0
373    3308.0
374    3425.0
375    3324.0
Name: Intensity [Counts], Length: 287, dtype: float64}","{'amplitude': 53382, 'mean': 21.3524, 'std_dev': 0.295446, 'background': 6485.28, 'uncertainty': array([1777.58, 0.00778214, 0.00913181, 824.325]), 'crystalline_x_range_used': [20, 20.08, 20.16, 20.24, 20.32, 20.4, 20.48, 20.56, 20.64, 20.72, 20.8, 20.88, 20.96, 21.04, 21.12, 21.2, 21.28, 21.36, 21.44, 21.52, 21.6, 21.68, 21.76, 21.84, 21.92, 22, 22.08, 22.16, 22.24, 22.32, 22.4, 22.48, 22.56, 22.64, 22.72, 22.8, 22.88], 'crystalline_y_range_used': No.
163     7245.0
164     7377.0
165     7604.0
166     7646.0
167     7771.0
168     7995.0
169     8083.0
170     8208.0
171     8076.0
172     8483.0
173    11779.0
174    20519.0
175    34744.0
176    53687.0
177    67091.0
178    74174.0
179    75880.0
180    72552.0
181    69538.0
182    65397.0
183    59354.0
184    50081.0
185    38613.0
186    26332.0
187    16419.0
188    10401.0
189     8201.0
190     7664.0
191     7542.0
192     7518.0
193     7359.0
194     7342.0
195     7425.0
196     7141.0
197     7325.0
198     7367.0
199     7297.0
Name: Intensity [Counts], dtype: float64}",130512,72059.5,0.44787,0.55213,63.4569
10.0,"No.
1         6.04
2         6.12
3         6.20
4         6.28
5         6.36
         ...
1533    128.60
1534    128.68
1535    128.76
1536    128.84
1537    128.92
Name: Pos. [°2θ], Length: 1537, dtype: float64","No.
1       5588.0
2       5439.0
3       5538.0
4       5532.0
5       5483.0
         ...
1533    7756.0
1534    8529.0
1535    8633.0
1536    8555.0
1537    8280.0
Name: Intensity [Counts], Length: 1537, dtype: float64","[14.0, 35.0]","[18.0, 21.0]","{'amplitude': 39819.3, 'mean': 21.3032, 'std_dev': 4.27644, 'background': 3811.33, 'uncertainty': array([545.237, 0.0270708, 0.0434094, 24.1188]), 'amorphous_x_range_used': [14.04, 14.12, 14.2, 14.28, 14.36, 14.44, 14.52, 14.6, 14.68, 14.76, 14.84, 14.92, 15.0, 15.08, 15.16, 15.24, 15.32, 15.4, 15.48, 15.56, 15.64, 15.72, 15.8, 15.88, 15.96, 16.04, 16.12, 16.2, 16.28, 16.36, 16.44, 16.52, 16.6, 16.68, 16.76, 16.84, 16.92, 17.0, 17.08, 17.16, 17.24, 17.32, 17.4, 17.48, 17.56, 17.64, 17.72, 17.8, 17.88, 17.96, 21, 21.08, 21.16, 21.24, 21.32, 21.4, 21.48, 21.56, 21.64, 21.72, 21.8, 21.88, 21.96, 22.04, 22.12, 22.2, 22.28, 22.36, 22.44, 22.52, 22.6, 22.68, 22.76, 22.84, 22.92, 23, 23.08, 23.16, 23.24, 23.32, 23.4, 23.48, 23.56, 23.64, 23.72, 23.8, 23.88, 23.96, 24.04, 24.12, 24.2, 24.28, 24.36, 24.44, 24.52, 24.6, 24.68, 24.76, 24.84, 24.92, 25, 25.08, 25.16, 25.24, 25.32, 25.4, 25.48, 25.56, 25.64, 25.72, 25.8, 25.88, 25.96, 26.04, 26.12, 26.2, 26.28, 26.36, 26.44, 26.52, 26.6, 26.68, 26.76, 26.84, 26.92, 27, 27.08, 27.16, 27.24, 27.32, 27.4, 27.48, 27.56, 27.64, 27.72, 27.8, 27.88, 27.96, 28.04, 28.12, 28.2, 28.28, 28.36, 28.44, 28.52, 28.6, 28.68, 28.76, 28.84, 28.92, 29, 29.08, 29.16, 29.24, 29.32, 29.4, 29.48, 29.56, 29.64, 29.72, 29.8, 29.88, 29.96, 30.04, 30.12, 30.2, 30.28, 30.36, 30.44, 30.52, 30.6, 30.68, 30.76, 30.84, 30.92, 31, 31.08, 31.16, 31.24, 31.32, 31.4, 31.48, 31.56, 31.64, 31.72, 31.8, 31.88, 31.96, 32.04, 32.12, 32.2, 32.28, 32.36, 32.44, 32.52, 32.6, 32.68, 32.76, 32.84, 32.92, 33, 33.08, 33.16, 33.24, 33.32, 33.4, 33.48, 33.56, 33.64, 33.72, 33.8, 33.88, 33.96, 34.04, 34.12, 34.2, 34.28, 34.36, 34.44, 34.52, 34.6, 34.68, 34.76, 34.84, 34.92], 'amorphous_y_range_used': No.
101    5005.0
102    5055.0
103    5053.0
104    5267.0
105    5115.0
        ...
359    3614.0
360    3623.0
361    3667.0
362    3714.0
363    3747.0
Name: Intensity [Counts], Length: 225, dtype: float64}","{'amplitude': 50932.5, 'mean': 19.3774, 'std_dev': 0.284891, 'background': 6527.43, 'uncertainty': array([1513.86, 0.00683207, 0.00793638, 714.91]), 'crystalline_x_range_used': [18.04, 18.12, 18.2, 18.28, 18.36, 18.44, 18.52, 18.6, 18.68, 18.76, 18.84, 18.92, 19, 19.08, 19.16, 19.24, 19.32, 19.4, 19.48, 19.56, 19.64, 19.72, 19.8, 19.88, 19.96, 20.04, 20.12, 20.2, 20.28, 20.36, 20.44, 20.52, 20.6, 20.68, 20.76, 20.84, 20.92], 'crystalline_y_range_used': No.
151     6777.0
152     6886.0
153     6957.0
154     7034.0
155     7322.0
156     7426.0
157     7595.0
158     7920.0
159     8071.0
160     8557.0
161    11834.0
162    21025.0
163    35260.0
164    53085.0
165    66932.0
166    73638.0
167    74855.0
168    71781.0
169    68715.0
170    63527.0
171    56081.0
172    45151.0
173    33426.0
174    21826.0
175    13542.0
176     9144.0
177     7615.0
178     7753.0
179     7625.0
180     7581.0
181     7423.0
182     7549.0
183     7735.0
184     7480.0
185     7700.0
186     7732.0
187     7610.0
Name: Intensity [Counts], dtype: float64}",117246,69731.4,0.405254,0.594746,58.0964
9.0,"No.
1         5.04
2         5.12
3         5.20
4         5.28
5         5.36
         ...
1546    128.64
1547    128.72
1548    128.80
1549    128.88
1550    128.96
Name: Pos. [°2θ], Length: 1550, dtype: float64","No.
1       78653.0
2       64725.0
3       52503.0
4       41463.0
5       31249.0
         ...
1546     2736.0
1547     2767.0
1548     2701.0
1549     2768.0
1550     2751.0
Name: Intensity [Counts], Length: 1550, dtype: float64","[13.0, 34.0]","[16.0, 18.5]","{'amplitude': 48663.3, 'mean': 20.8255, 'std_dev': 4.81275, 'background': 3885.56, 'uncertainty': array([910.725, 0.0306365, 0.0570467, 36.9568]), 'amorphous_x_range_used': [13.04, 13.12, 13.2, 13.28, 13.36, 13.44, 13.52, 13.6, 13.68, 13.76, 13.84, 13.92, 14.0, 14.08, 14.16, 14.24, 14.32, 14.4, 14.48, 14.56, 14.64, 14.72, 14.8, 14.88, 14.96, 15.04, 15.12, 15.2, 15.28, 15.36, 15.44, 15.52, 15.6, 15.68, 15.76, 15.84, 15.92, 16.0, 18.48, 18.56, 18.64, 18.72, 18.8, 18.88, 18.96, 19.04, 19.12, 19.2, 19.28, 19.36, 19.44, 19.52, 19.6, 19.68, 19.76, 19.84, 19.92, 20, 20.08, 20.16, 20.24, 20.32, 20.4, 20.48, 20.56, 20.64, 20.72, 20.8, 20.88, 20.96, 21.04, 21.12, 21.2, 21.28, 21.36, 21.44, 21.52, 21.6, 21.68, 21.76, 21.84, 21.92, 22, 22.08, 22.16, 22.24, 22.32, 22.4, 22.48, 22.56, 22.64, 22.72, 22.8, 22.88, 22.96, 23.04, 23.12, 23.2, 23.28, 23.36, 23.44, 23.52, 23.6, 23.68, 23.76, 23.84, 23.92, 24, 24.08, 24.16, 24.24, 24.32, 24.4, 24.48, 24.56, 24.64, 24.72, 24.8, 24.88, 24.96, 25.04, 25.12, 25.2, 25.28, 25.36, 25.44, 25.52, 25.6, 25.68, 25.76, 25.84, 25.92, 26, 26.08, 26.16, 26.24, 26.32, 26.4, 26.48, 26.56, 26.64, 26.72, 26.8, 26.88, 26.96, 27.04, 27.12, 27.2, 27.28, 27.36, 27.44, 27.52, 27.6, 27.68, 27.76, 27.84, 27.92, 28, 28.08, 28.16, 28.24, 28.32, 28.4, 28.48, 28.56, 28.64, 28.72, 28.8, 28.88, 28.96, 29.04, 29.12, 29.2, 29.28, 29.36, 29.44, 29.52, 29.6, 29.68, 29.76, 29.84, 29.92, 30, 30.08, 30.16, 30.24, 30.32, 30.4, 30.48, 30.56, 30.64, 30.72, 30.8, 30.88, 30.96, 31.04, 31.12, 31.2, 31.28, 31.36, 31.44, 31.52, 31.6, 31.68, 31.76, 31.84, 31.92, 32, 32.08, 32.16, 32.24, 32.32, 32.4, 32.48, 32.56, 32.64, 32.72, 32.8, 32.88, 32.96, 33.04, 33.12, 33.2, 33.28, 33.36, 33.44, 33.52, 33.6, 33.68, 33.76, 33.84], 'amorphous_y_range_used': No.
101    5254.0
102    5267.0
103    5213.0
104    5375.0
105    5300.0
        ...
359    3921.0
360    4033.0
361    3920.0
362    3817.0
363    3909.0
Name: Intensity [Counts], Length: 231, dtype: float64}","{'amplitude': 44007.4, 'mean': 17.3663, 'std_dev': 0.273838, 'background': 5583.89, 'uncertainty': array([1542.04, 0.00712436, 0.00864376, 811.474]), 'crystalline_x_range_used': [16.0, 16.08, 16.16, 16.24, 16.32, 16.4, 16.48, 16.56, 16.64, 16.72, 16.8, 16.88, 16.96, 17.04, 17.12, 17.2, 17.28, 17.36, 17.44, 17.52, 17.6, 17.68, 17.76, 17.84, 17.92, 18, 18.08, 18.16, 18.24, 18.32, 18.4], 'crystalline_y_range_used': No.
138     5929.0
139     6011.0
140     6095.0
141     6117.0
142     6256.0
143     6405.0
144     6523.0
145     6627.0
146     6781.0
147     7036.0
148     7937.0
149    13084.0
150    23106.0
151    38084.0
152    53902.0
153    64403.0
154    68469.0
155    66761.0
156    61933.0
157    57270.0
158    50739.0
159    41847.0
160    31841.0
161    21773.0
162    13718.0
163     9042.0
164     7325.0
165     6920.0
166     7125.0
167     6972.0
168     7139.0
Name: Intensity [Counts], dtype: float64}",126669,57404.8,0.546812,0.453188,51.3142
8.0,"No.
1         4.04
2         4.12
3         4.20
4         4.28
5         4.36
         ...
1558    128.60
1559    128.68
1560    128.76
1561    128.84
1562    128.92
Name: Pos. [°2θ], Length: 1562, dtype: float64","No.
1       117780.0
2       114225.0
3       112338.0
4       108504.0
5       103421.0
          ...
1558      1431.0
1559      1382.0
1560      1480.0
1561      1345.0
1562      1561.0
Name: Intensity [Counts], Length: 1562, dtype: float64","[13.0, 32.0]","[14.5, 16.0]","{'amplitude': 25629.3, 'mean': 20.8937, 'std_dev': 4.94137, 'background': 2203.49, 'uncertainty': array([2250.01, 0.0816604, 0.244178, 94.9075]), 'amorphous_x_range_used': [13.0, 13.08, 13.16, 13.24, 13.32, 13.4, 13.48, 13.56, 13.64, 13.72, 13.8, 13.88, 13.96, 14.04, 14.12, 14.2, 14.28, 14.36, 14.44, 15.96, 16.04, 16.12, 16.2, 16.28, 16.36, 16.44, 16.52, 16.6, 16.68, 16.76, 16.84, 16.92, 17, 17.08, 17.16, 17.24, 17.32, 17.4, 17.48, 17.56, 17.64, 17.72, 17.8, 17.88, 17.96, 18.04, 18.12, 18.2, 18.28, 18.36, 18.44, 18.52, 18.6, 18.68, 18.76, 18.84, 18.92, 19, 19.08, 19.16, 19.24, 19.32, 19.4, 19.48, 19.56, 19.64, 19.72, 19.8, 19.88, 19.96, 20.04, 20.12, 20.2, 20.28, 20.36, 20.44, 20.52, 20.6, 20.68, 20.76, 20.84, 20.92, 21, 21.08, 21.16, 21.24, 21.32, 21.4, 21.48, 21.56, 21.64, 21.72, 21.8, 21.88, 21.96, 22.04, 22.12, 22.2, 22.28, 22.36, 22.44, 22.52, 22.6, 22.68, 22.76, 22.84, 22.92, 23, 23.08, 23.16, 23.24, 23.32, 23.4, 23.48, 23.56, 23.64, 23.72, 23.8, 23.88, 23.96, 24.04, 24.12, 24.2, 24.28, 24.36, 24.44, 24.52, 24.6, 24.68, 24.76, 24.84, 24.92, 25, 25.08, 25.16, 25.24, 25.32, 25.4, 25.48, 25.56, 25.64, 25.72, 25.8, 25.88, 25.96, 26.04, 26.12, 26.2, 26.28, 26.36, 26.44, 26.52, 26.6, 26.68, 26.76, 26.84, 26.92, 27, 27.08, 27.16, 27.24, 27.32, 27.4, 27.48, 27.56, 27.64, 27.72, 27.8, 27.88, 27.96, 28.04, 28.12, 28.2, 28.28, 28.36, 28.44, 28.52, 28.6, 28.68, 28.76, 28.84, 28.92, 29, 29.08, 29.16, 29.24, 29.32, 29.4, 29.48, 29.56, 29.64, 29.72, 29.8, 29.88, 29.96, 30.04, 30.12, 30.2, 30.28, 30.36, 30.44, 30.52, 30.6, 30.68, 30.76, 30.84, 30.92, 31, 31.08, 31.16, 31.24, 31.32, 31.4, 31.48, 31.56, 31.64, 31.72, 31.8, 31.88], 'amorphous_y_range_used': No.
113    3082.0
114    3166.0
115    3197.0
116    3239.0
117    3308.0
        ...
346    2392.0
347    2351.0
348    2273.0
349    2281.0
350    2268.0
Name: Intensity [Counts], Length: 219, dtype: float64}","{'amplitude': 15852.6, 'mean': 15.398, 'std_dev': 0.175912, 'background': 2727.8, 'uncertainty': array([195.918, 0.00151317, 0.00189338, 168.755]), 'crystalline_x_range_used': [14.52, 14.6, 14.68, 14.76, 14.84, 14.92, 15, 15.08, 15.16, 15.24, 15.32, 15.4, 15.48, 15.56, 15.64, 15.72, 15.8, 15.88], 'crystalline_y_range_used': No.
132     3059.0
133     3014.0
134     3025.0
135     3084.0
136     3001.0
137     3165.0
138     4643.0
139     9144.0
140    17516.0
141    27399.0
142    35168.0
143    38226.0
144    35046.0
145    26377.0
146    16699.0
147     9717.0
148     5244.0
149     3457.0
Name: Intensity [Counts], dtype: float64}",65487.8,19506.8,0.702131,0.297869,44.6934
6.0,"No.
1         2.04
2         2.12
3         2.20
4         2.28
5         2.36
         ...
1583    128.60
1584    128.68
1585    128.76
1586    128.84
1587    128.92
Name: Pos. [°2θ], Length: 1587, dtype: float64","No.
1       720345.0
2       646914.0
3       578382.0
4       511477.0
5       443270.0
          ...
1583      1638.0
1584      1715.0
1585      1743.0
1586      1650.0
1587      1746.0
Name: Intensity [Counts], Length: 1587, dtype: float64","[13.0, 33.0]","[60.5, 63.0]","{'amplitude': 26117.2, 'mean': 21.4003, 'std_dev': 3.95099, 'background': 2550.63, 'uncertainty': array([572.764, 0.0304082, 0.0584433, 27.5818]), 'amorphous_x_range_used': No.
138    13.00
139    13.08
140    13.16
141    13.24
142    13.32
       ...
384    32.68
385    32.76
386    32.84
387    32.92
388    33.00
Name: Pos. [°2θ], Length: 251, dtype: float64, 'amorphous_y_range_used': No.
138    3035.0
139    3151.0
140    3158.0
141    3160.0
142    3196.0
        ...
384    2422.0
385    2401.0
386    2468.0
387    2492.0
388    2415.0
Name: Intensity [Counts], Length: 251, dtype: float64}","{'amplitude': 14175.3, 'mean': 61.8633, 'std_dev': 0.166416, 'background': 2583.41, 'uncertainty': array([439.043, 0.00481438, 0.00522108, 291.702]), 'crystalline_x_range_used': No.
732    60.52
733    60.60
734    60.68
735    60.76
736    60.84
737    60.92
738    61.00
739    61.08
740    61.16
741    61.24
742    61.32
743    61.40
744    61.48
745    61.56
746    61.64
747    61.72
748    61.80
749    61.88
750    61.96
751    62.04
752    62.12
753    62.20
754    62.28
755    62.36
756    62.44
757    62.52
758    62.60
759    62.68
760    62.76
761    62.84
762    62.92
763    63.00
Name: Pos. [°2θ], dtype: float64, 'crystalline_y_range_used': No.
732     1896.0
733     1682.0
734     1741.0
735     1822.0
736     1857.0
737     2826.0
738     4221.0
739     5790.0
740     6275.0
741     5487.0
742     4283.0
743     3399.0
744     4177.0
745     8803.0
746    16387.0
747    26469.0
748    34276.0
749    35996.0
750    31191.0
751    22123.0
752    13335.0
753     6989.0
754     3296.0
755     2114.0
756     2048.0
757     1903.0
758     1701.0
759     1528.0
760     1499.0
761     1608.0
762     1604.0
763     1535.0
Name: Intensity [Counts], dtype: float64}",76648.9,20582.2,0.731474,0.268526,33.4352
5.0,"No.
1         1.04
2         1.12
3         1.20
4         1.28
5         1.36
         ...
1596    128.64
1597    128.72
1598    128.80
1599    128.88
1600    128.96
Name: Pos. [°2θ], Length: 1600, dtype: float64","No.
1       631313.0
2       746421.0
3       822223.0
4       857315.0
5       880348.0
          ...
1596      1793.0
1597      1743.0
1598      1772.0
1599      1754.0
1600      1783.0
Name: Intensity [Counts], Length: 1600, dtype: float64","[12.0, 31.0]","[59.0, 61.0]","{'amplitude': 22550.1, 'mean': 21.4805, 'std_dev': 3.37586, 'background': 3104.07, 'uncertainty': array([429.782, 0.0250245, 0.0458062, 23.2185]), 'amorphous_x_range_used': No.
138    12.00
139    12.08
140    12.16
141    12.24
142    12.32
       ...
371    30.64
372    30.72
373    30.80
374    30.88
375    30.96
Name: Pos. [°2θ], Length: 238, dtype: float64, 'amorphous_y_range_used': No.
138    3346.0
139    3371.0
140    3282.0
141    3330.0
142    3305.0
        ...
371    2851.0
372    2833.0
373    2944.0
374    2991.0
375    2904.0
Name: Intensity [Counts], Length: 238, dtype: float64}","{'amplitude': 20859.6, 'mean': 59.8554, 'std_dev': 0.173216, 'background': 1793.51, 'uncertainty': array([229.635, 0.00161725, 0.00183295, 169.193]), 'crystalline_x_range_used': No.
726    59.04
727    59.12
728    59.20
729    59.28
730    59.36
731    59.44
732    59.52
733    59.60
734    59.68
735    59.76
736    59.84
737    59.92
738    60.00
739    60.08
740    60.16
741    60.24
742    60.32
743    60.40
744    60.48
745    60.56
746    60.64
747    60.72
748    60.80
749    60.88
750    60.96
Name: Pos. [°2θ], dtype: float64, 'crystalline_y_range_used': No.
726     2041.0
727     2069.0
728     2160.0
729     2436.0
730     2592.0
731     3305.0
732     8022.0
733    17514.0
734    31017.0
735    44452.0
736    49296.0
737    45456.0
738    35669.0
739    23032.0
740    12870.0
741     5911.0
742     2877.0
743     2258.0
744     2071.0
745     1919.0
746     1819.0
747     1754.0
748     1718.0
749     1731.0
750     1594.0
Name: Intensity [Counts], dtype: float64}",81290.8,24303.1,0.701035,0.298965,27.993
3.0,"No.
1         0.04
2         0.12
3         0.20
4         0.28
5         0.36
         ...
1608    128.60
1609    128.68
1610    128.76
1611    128.84
1612    128.92
Name: Pos. [°2θ], Length: 1612, dtype: float64","No.
1        24368.0
2       138510.0
3       378336.0
4       563573.0
5       578570.0
          ...
1608       935.0
1609       945.0
1610       951.0
1611       950.0
1612       957.0
Name: Intensity [Counts], Length: 1612, dtype: float64","[14.0, 35.0]","[36.0, 38.0]","{'amplitude': 29196.3, 'mean': 22.0999, 'std_dev': 4.87348, 'background': 1520.23, 'uncertainty': array([2533.56, 0.121005, 0.264663, 104.104]), 'amorphous_x_range_used': No.
176    14.04
177    14.12
178    14.20
179    14.28
180    14.36
       ...
434    34.68
435    34.76
436    34.84
437    34.92
438    35.00
Name: Pos. [°2θ], Length: 263, dtype: float64, 'amorphous_y_range_used': No.
176    2211.0
177    2197.0
178    2271.0
179    2250.0
180    2349.0
        ...
434    1556.0
435    1608.0
436    1475.0
437    1513.0
438    1529.0
Name: Intensity [Counts], Length: 263, dtype: float64}","{'amplitude': 8261.9, 'mean': 36.9678, 'std_dev': 0.137582, 'background': 1320.89, 'uncertainty': array([97.387, 0.00149131, 0.00162837, 80.5113]), 'crystalline_x_range_used': No.
451    36.04
452    36.12
453    36.20
454    36.28
455    36.36
456    36.44
457    36.52
458    36.60
459    36.68
460    36.76
461    36.84
462    36.92
463    37.00
464    37.08
465    37.16
466    37.24
467    37.32
468    37.40
469    37.48
470    37.56
471    37.64
472    37.72
473    37.80
474    37.88
475    37.96
Name: Pos. [°2θ], dtype: float64, 'crystalline_y_range_used': No.
451     1282.0
452     1404.0
453     1459.0
454     1416.0
455     1358.0
456     1436.0
457     1567.0
458     1769.0
459     3307.0
460     9569.0
461    16850.0
462    23738.0
463    24642.0
464    18333.0
465    11030.0
466     4086.0
467     1825.0
468     1529.0
469     1459.0
470     1627.0
471     1502.0
472     1278.0
473     1278.0
474     1235.0
475     1317.0
Name: Intensity [Counts], dtype: float64}",59508.7,10798,0.818547,0.181453,16.5465
1.0,"No.
1         0.04
2         0.12
3         0.20
4         0.28
5         0.36
         ...
1608    128.60
1609    128.68
1610    128.76
1611    128.84
1612    128.92
Name: Pos. [°2θ], Length: 1612, dtype: float64","No.
1       4336836.0
2       2639410.0
3       1329354.0
4        577390.0
5        300585.0
          ...
1608        432.0
1609        443.0
1610        455.0
1611        456.0
1612        489.0
Name: Intensity [Counts], Length: 1612, dtype: float64","[12.0, 31.0]","[32.0, 34.0]","{'amplitude': 12075.4, 'mean': 22.0957, 'std_dev': 3.23298, 'background': 803.305, 'uncertainty': array([262.322, 0.0303619, 0.0515816, 14.4846]), 'amorphous_x_range_used': No.
151    12.04
152    12.12
153    12.20
154    12.28
155    12.36
       ...
384    30.68
385    30.76
386    30.84
387    30.92
388    31.00
Name: Pos. [°2θ], Length: 238, dtype: float64, 'amorphous_y_range_used': No.
151    834.0
152    789.0
153    846.0
154    817.0
155    818.0
       ...
384    797.0
385    873.0
386    800.0
387    822.0
388    786.0
Name: Intensity [Counts], Length: 238, dtype: float64}","{'amplitude': 2858.55, 'mean': 32.9816, 'std_dev': 0.136589, 'background': 703.207, 'uncertainty': array([43.9548, 0.00193538, 0.00211131, 36.47]), 'crystalline_x_range_used': No.
401    32.04
402    32.12
403    32.20
404    32.28
405    32.36
406    32.44
407    32.52
408    32.60
409    32.68
410    32.76
411    32.84
412    32.92
413    33.00
414    33.08
415    33.16
416    33.24
417    33.32
418    33.40
419    33.48
420    33.56
421    33.64
422    33.72
423    33.80
424    33.88
425    33.96
Name: Pos. [°2θ], dtype: float64, 'crystalline_y_range_used': No.
401     767.0
402     829.0
403     749.0
404     770.0
405     761.0
406     737.0
407     735.0
408     784.0
409    1066.0
410    3217.0
411    5682.0
412    8042.0
413    9028.0
414    7145.0
415    4430.0
416    1949.0
417     807.0
418     720.0
419     767.0
420     735.0
421     706.0
422     760.0
423     719.0
424     717.0
425     690.0
Name: Intensity [Counts], dtype: float64}",27259.2,4208.7,0.845604,0.154396,5.49795
0.25,"No.
1         0.04
2         0.12
3         0.20
4         0.28
5         0.36
         ...
1608    128.60
1609    128.68
1610    128.76
1611    128.84
1612    128.92
Name: Pos. [°2θ], Length: 1612, dtype: float64","No.
1       2279273.0
2       1360637.0
3        597189.0
4        249423.0
5        147186.0
          ...
1608        290.0
1609        327.0
1610        296.0
1611        299.0
1612        297.0
Name: Intensity [Counts], Length: 1612, dtype: float64","[12.0, 35.0]","[31.0, 32.5]","{'amplitude': 7254.85, 'mean': 21.7675, 'std_dev': 3.48888, 'background': 465.704, 'uncertainty': array([133.483, 0.0324022, 0.0489448, 6.66484]), 'amorphous_x_range_used': [12.04, 12.12, 12.2, 12.28, 12.36, 12.44, 12.52, 12.6, 12.68, 12.76, 12.84, 12.92, 13.0, 13.08, 13.16, 13.24, 13.32, 13.4, 13.48, 13.56, 13.64, 13.72, 13.8, 13.88, 13.96, 14.04, 14.12, 14.2, 14.28, 14.36, 14.44, 14.52, 14.6, 14.68, 14.76, 14.84, 14.92, 15, 15.08, 15.16, 15.24, 15.32, 15.4, 15.48, 15.56, 15.64, 15.72, 15.8, 15.88, 15.96, 16.04, 16.12, 16.2, 16.28, 16.36, 16.44, 16.52, 16.6, 16.68, 16.76, 16.84, 16.92, 17, 17.08, 17.16, 17.24, 17.32, 17.4, 17.48, 17.56, 17.64, 17.72, 17.8, 17.88, 17.96, 18.04, 18.12, 18.2, 18.28, 18.36, 18.44, 18.52, 18.6, 18.68, 18.76, 18.84, 18.92, 19, 19.08, 19.16, 19.24, 19.32, 19.4, 19.48, 19.56, 19.64, 19.72, 19.8, 19.88, 19.96, 20.04, 20.12, 20.2, 20.28, 20.36, 20.44, 20.52, 20.6, 20.68, 20.76, 20.84, 20.92, 21, 21.08, 21.16, 21.24, 21.32, 21.4, 21.48, 21.56, 21.64, 21.72, 21.8, 21.88, 21.96, 22.04, 22.12, 22.2, 22.28, 22.36, 22.44, 22.52, 22.6, 22.68, 22.76, 22.84, 22.92, 23, 23.08, 23.16, 23.24, 23.32, 23.4, 23.48, 23.56, 23.64, 23.72, 23.8, 23.88, 23.96, 24.04, 24.12, 24.2, 24.28, 24.36, 24.44, 24.52, 24.6, 24.68, 24.76, 24.84, 24.92, 25, 25.08, 25.16, 25.24, 25.32, 25.4, 25.48, 25.56, 25.64, 25.72, 25.8, 25.88, 25.96, 26.04, 26.12, 26.2, 26.28, 26.36, 26.44, 26.52, 26.6, 26.68, 26.76, 26.84, 26.92, 27, 27.08, 27.16, 27.24, 27.32, 27.4, 27.48, 27.56, 27.64, 27.72, 27.8, 27.88, 27.96, 28.04, 28.12, 28.2, 28.28, 28.36, 28.44, 28.52, 28.6, 28.68, 28.76, 28.84, 28.92, 29, 29.08, 29.16, 29.24, 29.32, 29.4, 29.48, 29.56, 29.64, 29.72, 29.8, 29.88, 29.96, 30.04, 30.12, 30.2, 30.28, 30.36, 30.44, 30.52, 30.6, 30.68, 30.76, 30.84, 30.92, 32.44, 32.52, 32.6, 32.68, 32.76, 32.84, 32.92, 33, 33.08, 33.16, 33.24, 33.32, 33.4, 33.48, 33.56, 33.64, 33.72, 33.8, 33.88, 33.96, 34.04, 34.12, 34.2, 34.28, 34.36, 34.44, 34.52, 34.6, 34.68, 34.76, 34.84, 34.92], 'amorphous_y_range_used': No.
151    523.0
152    506.0
153    534.0
154    544.0
155    532.0
       ...
434    380.0
435    400.0
436    357.0
437    391.0
438    421.0
Name: Intensity [Counts], Length: 269, dtype: float64}","{'amplitude': 1099.51, 'mean': 31.5381, 'std_dev': 0.161434, 'background': 445.232, 'uncertainty': array([24.4579, 0.0026412, 0.00321919, 21.9983]), 'crystalline_x_range_used': [31, 31.08, 31.16, 31.24, 31.32, 31.4, 31.48, 31.56, 31.64, 31.72, 31.8, 31.88, 31.96, 32.04, 32.12, 32.2, 32.28, 32.36], 'crystalline_y_range_used': No.
388     458.0
389     471.0
390     551.0
391     879.0
392    1576.0
393    2419.0
394    2930.0
395    3073.0
396    2727.0
397    1962.0
398    1087.0
399     696.0
400     570.0
401     465.0
402     492.0
403     486.0
404     464.0
405     450.0
Name: Intensity [Counts], dtype: float64}",17892.9,1704.44,0.904742,0.0952582,1.36386
0.025,"No.
1         0.04
2         0.12
3         0.20
4         0.28
5         0.36
         ...
1608    128.60
1609    128.68
1610    128.76
1611    128.84
1612    128.92
Name: Pos. [°2θ], Length: 1612, dtype: float64","No.
1       2430850.0
2       1416794.0
3        631513.0
4        272211.0
5        160593.0
          ...
1608        212.0
1609        213.0
1610        229.0
1611        204.0
1612        208.0
Name: Intensity [Counts], Length: 1612, dtype: float64","[14.0, 28.0]","[31.0, 32.0]","{'amplitude': 4942.2, 'mean': 19.2782, 'std_dev': 3.93684, 'background': 161.761, 'uncertainty': array([348.915, 0.0518065, 0.154158, 18.8122]), 'amorphous_x_range_used': No.
176    14.04
177    14.12
178    14.20
179    14.28
180    14.36
       ...
346    27.64
347    27.72
348    27.80
349    27.88
350    27.96
Name: Pos. [°2θ], Length: 175, dtype: float64, 'amorphous_y_range_used': No.
176    448.0
177    450.0
178    444.0
179    432.0
180    489.0
       ...
346    227.0
347    204.0
348    231.0
349    185.0
350    191.0
Name: Intensity [Counts], Length: 175, dtype: float64}","{'amplitude': 54.2466, 'mean': 31.3302, 'std_dev': 0.140249, 'background': 145.419, 'uncertainty': array([5.44604, 0.00910535, 0.01181782, 6.17514]), 'crystalline_x_range_used': No.
388    31.00
389    31.08
390    31.16
391    31.24
392    31.32
393    31.40
394    31.48
395    31.56
396    31.64
397    31.72
398    31.80
399    31.88
400    31.96
Name: Pos. [°2θ], dtype: float64, 'crystalline_y_range_used': No.
388    168.0
389    156.0
390    217.0
391    285.0
392    298.0
393    273.0
394    231.0
395    196.0
396    164.0
397    143.0
398    156.0
399    149.0
400    130.0
Name: Intensity [Counts], dtype: float64}",6673.03,193.26,0.971039,0.0289614,0.135206
0.5,"No.
1         0.04
2         0.12
3         0.20
4         0.28
5         0.36
         ...
1608    128.60
1609    128.68
1610    128.76
1611    128.84
1612    128.92
Name: Pos. [°2θ], Length: 1612, dtype: float64","No.
1       2079818.0
2       1255725.0
3        570511.0
4        242978.0
5        146750.0
          ...
1608        301.0
1609        337.0
1610        340.0
1611        322.0
1612        338.0
Name: Intensity [Counts], Length: 1612, dtype: float64","[12.0, 36.0]","[31.0, 33.0]","{'amplitude': 6683.76, 'mean': 22.0059, 'std_dev': 3.70839, 'background': 415.224, 'uncertainty': array([110.82, 0.0302213, 0.0460503, 5.30216]), 'amorphous_x_range_used': [12.04, 12.12, 12.2, 12.28, 12.36, 12.44, 12.52, 12.6, 12.68, 12.76, 12.84, 12.92, 13.0, 13.08, 13.16, 13.24, 13.32, 13.4, 13.48, 13.56, 13.64, 13.72, 13.8, 13.88, 13.96, 14.04, 14.12, 14.2, 14.28, 14.36, 14.44, 14.52, 14.6, 14.68, 14.76, 14.84, 14.92, 15, 15.08, 15.16, 15.24, 15.32, 15.4, 15.48, 15.56, 15.64, 15.72, 15.8, 15.88, 15.96, 16.04, 16.12, 16.2, 16.28, 16.36, 16.44, 16.52, 16.6, 16.68, 16.76, 16.84, 16.92, 17, 17.08, 17.16, 17.24, 17.32, 17.4, 17.48, 17.56, 17.64, 17.72, 17.8, 17.88, 17.96, 18.04, 18.12, 18.2, 18.28, 18.36, 18.44, 18.52, 18.6, 18.68, 18.76, 18.84, 18.92, 19, 19.08, 19.16, 19.24, 19.32, 19.4, 19.48, 19.56, 19.64, 19.72, 19.8, 19.88, 19.96, 20.04, 20.12, 20.2, 20.28, 20.36, 20.44, 20.52, 20.6, 20.68, 20.76, 20.84, 20.92, 21, 21.08, 21.16, 21.24, 21.32, 21.4, 21.48, 21.56, 21.64, 21.72, 21.8, 21.88, 21.96, 22.04, 22.12, 22.2, 22.28, 22.36, 22.44, 22.52, 22.6, 22.68, 22.76, 22.84, 22.92, 23, 23.08, 23.16, 23.24, 23.32, 23.4, 23.48, 23.56, 23.64, 23.72, 23.8, 23.88, 23.96, 24.04, 24.12, 24.2, 24.28, 24.36, 24.44, 24.52, 24.6, 24.68, 24.76, 24.84, 24.92, 25, 25.08, 25.16, 25.24, 25.32, 25.4, 25.48, 25.56, 25.64, 25.72, 25.8, 25.88, 25.96, 26.04, 26.12, 26.2, 26.28, 26.36, 26.44, 26.52, 26.6, 26.68, 26.76, 26.84, 26.92, 27, 27.08, 27.16, 27.24, 27.32, 27.4, 27.48, 27.56, 27.64, 27.72, 27.8, 27.88, 27.96, 28.04, 28.12, 28.2, 28.28, 28.36, 28.44, 28.52, 28.6, 28.68, 28.76, 28.84, 28.92, 29, 29.08, 29.16, 29.24, 29.32, 29.4, 29.48, 29.56, 29.64, 29.72, 29.8, 29.88, 29.96, 30.04, 30.12, 30.2, 30.28, 30.36, 30.44, 30.52, 30.6, 30.68, 30.76, 30.84, 30.92, 33, 33.08, 33.16, 33.24, 33.32, 33.4, 33.48, 33.56, 33.64, 33.72, 33.8, 33.88, 33.96, 34.04, 34.12, 34.2, 34.28, 34.36, 34.44, 34.52, 34.6, 34.68, 34.76, 34.84, 34.92, 35, 35.08, 35.16, 35.24, 35.32, 35.4, 35.48, 35.56, 35.64, 35.72, 35.8, 35.88], 'amorphous_y_range_used': No.
151    458.0
152    480.0
153    488.0
154    484.0
155    456.0
       ...
446    359.0
447    368.0
448    337.0
449    365.0
450    346.0
Name: Intensity [Counts], Length: 274, dtype: float64}","{'amplitude': 1310.85, 'mean': 32.0158, 'std_dev': 0.139265, 'background': 425.896, 'uncertainty': array([22.0322, 0.00214485, 0.00234563, 18.104]), 'crystalline_x_range_used': [31, 31.08, 31.16, 31.24, 31.32, 31.4, 31.48, 31.56, 31.64, 31.72, 31.8, 31.88, 31.96, 32.04, 32.12, 32.2, 32.28, 32.36, 32.44, 32.52, 32.6, 32.68, 32.76, 32.84, 32.92], 'crystalline_y_range_used': No.
388     463.0
389     477.0
390     465.0
391     466.0
392     457.0
393     426.0
394     470.0
395     444.0
396     430.0
397     683.0
398    1663.0
399    2808.0
400    3825.0
401    4106.0
402    3277.0
403    2124.0
404     878.0
405     550.0
406     474.0
407     423.0
408     438.0
409     458.0
410     387.0
411     403.0
412     438.0
Name: Intensity [Counts], dtype: float64}",16564.7,2128.57,0.8715,0.1285,2.73967
0.05,"No.
1         0.04
2         0.12
3         0.20
4         0.28
5         0.36
         ...
1608    128.60
1609    128.68
1610    128.76
1611    128.84
1612    128.92
Name: Pos. [°2θ], Length: 1612, dtype: float64","No.
1       2543620.0
2       1481101.0
3        660704.0
4        284327.0
5        169447.0
          ...
1608        203.0
1609        225.0
1610        213.0
1611        234.0
1612        208.0
Name: Intensity [Counts], Length: 1612, dtype: float64","[14.0, 28.0]","[30.5, 32.5]","{'amplitude': 6734.11, 'mean': 19.5931, 'std_dev': 4.07079, 'background': 223.981, 'uncertainty': array([507.91, 0.045187, 0.161154, 27.1076]), 'amorphous_x_range_used': No.
176    14.04
177    14.12
178    14.20
179    14.28
180    14.36
       ...
346    27.64
347    27.72
348    27.80
349    27.88
350    27.96
Name: Pos. [°2θ], Length: 175, dtype: float64, 'amorphous_y_range_used': No.
176    565.0
177    620.0
178    624.0
179    607.0
180    572.0
       ...
346    316.0
347    333.0
348    296.0
349    281.0
350    286.0
Name: Intensity [Counts], Length: 175, dtype: float64}","{'amplitude': 162.955, 'mean': 31.3307, 'std_dev': 0.150663, 'background': 216.363, 'uncertainty': array([6.00839, 0.00496637, 0.00549171, 4.74667]), 'crystalline_x_range_used': No.
382    30.52
383    30.60
384    30.68
385    30.76
386    30.84
387    30.92
388    31.00
389    31.08
390    31.16
391    31.24
392    31.32
393    31.40
394    31.48
395    31.56
396    31.64
397    31.72
398    31.80
399    31.88
400    31.96
401    32.04
402    32.12
403    32.20
404    32.28
405    32.36
406    32.44
Name: Pos. [°2θ], dtype: float64, 'crystalline_y_range_used': No.
382    268.0
383    228.0
384    215.0
385    215.0
386    218.0
387    233.0
388    269.0
389    327.0
390    421.0
391    590.0
392    654.0
393    589.0
394    493.0
395    341.0
396    272.0
397    241.0
398    241.0
399    225.0
400    186.0
401    203.0
402    190.0
403    206.0
404    208.0
405    206.0
406    207.0
Name: Intensity [Counts], dtype: float64}",9136.8,578.371,0.936699,0.0633013,0.27163
0.1,"No.
1         0.04
2         0.12
3         0.20
4         0.28
5         0.36
         ...
1608    128.60
1609    128.68
1610    128.76
1611    128.84
1612    128.92
Name: Pos. [°2θ], Length: 1612, dtype: float64","No.
1       2244251.0
2       1330112.0
3        595899.0
4        254025.0
5        155149.0
          ...
1608        250.0
1609        227.0
1610        255.0
1611        246.0
1612        250.0
Name: Intensity [Counts], Length: 1612, dtype: float64","[12.0, 30.0]","[30.5, 32.5]","{'amplitude': 6736.88, 'mean': 20.0261, 'std_dev': 3.88737, 'background': 408.238, 'uncertainty': array([387.806, 0.0576856, 0.139001, 19.8342]), 'amorphous_x_range_used': No.
151    12.04
152    12.12
153    12.20
154    12.28
155    12.36
       ...
371    29.64
372    29.72
373    29.80
374    29.88
375    29.96
Name: Pos. [°2θ], Length: 225, dtype: float64, 'amorphous_y_range_used': No.
151    622.0
152    656.0
153    687.0
154    612.0
155    658.0
       ...
371    402.0
372    373.0
373    380.0
374    389.0
375    360.0
Name: Intensity [Counts], Length: 225, dtype: float64}","{'amplitude': 360.489, 'mean': 31.3483, 'std_dev': 0.191883, 'background': 308.276, 'uncertainty': array([15.0603, 0.00647875, 0.00751942, 10.5426]), 'crystalline_x_range_used': No.
382    30.52
383    30.60
384    30.68
385    30.76
386    30.84
387    30.92
388    31.00
389    31.08
390    31.16
391    31.24
392    31.32
393    31.40
394    31.48
395    31.56
396    31.64
397    31.72
398    31.80
399    31.88
400    31.96
401    32.04
402    32.12
403    32.20
404    32.28
405    32.36
406    32.44
Name: Pos. [°2θ], dtype: float64, 'crystalline_y_range_used': No.
382     334.0
383     399.0
384     335.0
385     342.0
386     332.0
387     340.0
388     448.0
389     616.0
390     797.0
391     935.0
392    1013.0
393    1016.0
394     943.0
395     769.0
396     485.0
397     406.0
398     339.0
399     268.0
400     310.0
401     292.0
402     312.0
403     281.0
404     298.0
405     327.0
406     276.0
Name: Intensity [Counts], dtype: float64}",13882.2,952.375,0.931396,0.068604,0.543637
0.01,"No.
1         0.04
2         0.12
3         0.20
4         0.28
5         0.36
         ...
1608    128.60
1609    128.68
1610    128.76
1611    128.84
1612    128.92
Name: Pos. [°2θ], Length: 1612, dtype: float64","No.
1       2281857.0
2       1344978.0
3        602579.0
4        258768.0
5        153569.0
          ...
1608        208.0
1609        208.0
1610        202.0
1611        207.0
1612        167.0
Name: Intensity [Counts], Length: 1612, dtype: float64","[13.0, 26.0]","[30.5, 32.0]","{'amplitude': 7972.04, 'mean': 18.667, 'std_dev': 5.54275, 'background': -4.84245, 'uncertainty': array([2925.73, 0.0686045, 0.836401, 127.323]), 'amorphous_x_range_used': No.
163    13.00
164    13.08
165    13.16
166    13.24
167    13.32
       ...
321    25.64
322    25.72
323    25.80
324    25.88
325    25.96
Name: Pos. [°2θ], Length: 163, dtype: float64, 'amorphous_y_range_used': No.
163    465.0
164    423.0
165    411.0
166    408.0
167    435.0
       ...
321    263.0
322    249.0
323    247.0
324    238.0
325    230.0
Name: Intensity [Counts], Length: 163, dtype: float64}","{'amplitude': 13.0981, 'mean': 31.2805, 'std_dev': 0.139573, 'background': 132.751, 'uncertainty': array([4.35934, 0.03837125, 0.04405242, 4.10441]), 'crystalline_x_range_used': No.
382    30.52
383    30.60
384    30.68
385    30.76
386    30.84
387    30.92
388    31.00
389    31.08
390    31.16
391    31.24
392    31.32
393    31.40
394    31.48
395    31.56
396    31.64
397    31.72
398    31.80
399    31.88
400    31.96
Name: Pos. [°2θ], dtype: float64, 'crystalline_y_range_used': No.
382    141.0
383    144.0
384    133.0
385    151.0
386    141.0
387    154.0
388    137.0
389    146.0
390    163.0
391    159.0
392    166.0
393    178.0
394    137.0
395    127.0
396    125.0
397    117.0
398    114.0
399    128.0
400    125.0
Name: Intensity [Counts], dtype: float64}",5936.8,204.26,0.965594,0.0344057,0.054121
7.0,"No.
1         3.04
2         3.12
3         3.20
4         3.28
5         3.36
         ...
1571    128.64
1572    128.72
1573    128.80
1574    128.88
1575    128.96
Name: Pos. [°2θ], Length: 1575, dtype: float64","No.
1       136331
2       130739
3       127712
4       125865
5       124628
         ...
1571      1678
1572      1541
1573      1513
1574      1401
1575      1503
Name: Intensity [Counts], Length: 1575, dtype: int64","[13.0, 30.0]","[63.0, 65.0]","{'amplitude': 4196.76, 'mean': 21.6381, 'std_dev': 1.60038, 'background': 3867.8, 'uncertainty': array([2144.98, 0.668177, 0.771354, 178.107]), 'amorphous_x_range_used': No.
126    13.04
127    13.12
128    13.20
129    13.28
130    13.36
       ...
334    29.68
335    29.76
336    29.84
337    29.92
338    30.00
Name: Pos. [°2θ], Length: 213, dtype: float64, 'amorphous_y_range_used': No.
126     3672
127     5369
128     8581
129    12581
130    15680
       ...
334     2701
335     2759
336     2616
337     2705
338     2620
Name: Intensity [Counts], Length: 213, dtype: int64}","{'amplitude': 11475.8, 'mean': 63.8764, 'std_dev': 0.175192, 'background': 1515.88, 'uncertainty': array([80.8078, 0.00104115, 0.0011828, 59.2016]), 'crystalline_x_range_used': No.
751    63.04
752    63.12
753    63.20
754    63.28
755    63.36
756    63.44
757    63.52
758    63.60
759    63.68
760    63.76
761    63.84
762    63.92
763    64.00
764    64.08
765    64.16
766    64.24
767    64.32
768    64.40
769    64.48
770    64.56
771    64.64
772    64.72
773    64.80
774    64.88
775    64.96
Name: Pos. [°2θ], dtype: float64, 'crystalline_y_range_used': No.
751     1463
752     1637
753     1767
754     1905
755     2001
756     2423
757     4591
758     8944
759    15557
760    22734
761    27065
762    26413
763    22180
764    14898
765     8559
766     4520
767     2302
768     1955
769     1838
770     1671
771     1497
772     1414
773     1428
774     1263
775     1320
Name: Intensity [Counts], dtype: int64}",69794.7,14386.3,0.793877,0.206123,38.6571