File: Data Files/Full/p01 csv/Processed_XRD_Data.csv
,omega,Position,Intensity,amorphous_range,crystalline_range,amorphous_fit_amplitude,amorphous_fit_amplitude_uncertainty,amorphous_fit_mean,amorphous_fit_mean_uncertainty,amorphous_fit_std_dev,amorphous_fit_std_dev_uncertainty,amorphous_fit_background,amorphous_fit_background_uncertainty,chi_squared_amorphous,amorphous_nu,chi_squared_amorphous_p,amorphous_fit_amorphous_x_range_used,amorphous_fit_amorphous_y_range_used,crystalline_fit_amplitude,crystalline_fit_amplitude_uncertainty,crystalline_fit_mean,crystalline_fit_mean_uncertainty,crystalline_fit_std_dev,crystalline_fit_std_dev_uncertainty,crystalline_fit_background,crystalline_fit_background_uncertainty,chi_squared_crystalline,crystalline_nu,chi_squared_crystalline_p,crystalline_fit_crystalline_x_range_used,crystalline_fit_crystalline_y_range_used,max_amorphous,max_crystalline,amorphous_area,crystalline_area,amorphous_percentage,crystalline_percentage,amorphous_percentage_intensity,crystalline_percentage_intensity,effective_depth,effective_depth_intensity
"MSS p (10-35, 0.005w)_01.csv",0.005,"[10.005 10.015 10.025 10.035 10.045 10.055 10.065 10.075 10.085 10.095
 17.205 17.215 17.225 17.235 17.245 17.255 17.265 17.275 17.285 17.295
 24.405 24.415 24.425 24.435 24.445 24.455 24.465 24.475 24.485 24.495
 31.605 31.615 31.625 31.635 31.645 31.655 31.665 31.675 31.685 31.695
 380. 367. 392. 387. 402. 399. 364. 419. 371. 388. 380. 352. 392. 417.
 307. 275. 277. 294. 296. 299. 321. 316. 289. 296. 295. 278. 296. 301.
 14.505 14.515 14.525 14.535 14.545 14.555 14.565 14.575 14.585 14.595
 21.705 21.715 21.725 21.735 21.745 21.755 21.765 21.775 21.785 21.795
 169.098 177.098 187.098 168.098 198.098
 297.098 265.098 312.098 334.098 277.098
 354.098 357.098 359.098 332.098 341.098
  99.0977 118.098 120.098 122.098 107.098
  -38.2305  -39.2305  -48.2305  -50.2305  -53.2305
 10.205 10.215 10.225 10.235 10.245 10.255 10.265 10.275 10.285 10.295
 17.405 17.415 17.425 17.435 17.445 17.455 17.465 17.475 17.485 17.495
 24.605 24.615 24.625 24.635 24.645 24.655 24.665 24.675 24.685 24.695
 31.805 31.815 31.825 31.835 31.845 31.855 31.865 31.875 31.885 31.895
  678.  634.  636.  620.  642.  601.  639.  623.  689.  647.  584.  640.
  774.  773.  802.  735.  755.  741.  725.  737.  759.  735.  731.  769.
  255.  240.  262.  279.  234.  249.  242.  254.  239.  249.  259.  265.
 18.905 18.915 18.925 18.935 18.945 18.955 18.965 18.975 18.985 18.995
 26.105 26.115 26.125 26.135 26.145 26.155 26.165 26.175 26.185 26.195
 484.525 464.525 518.525 488.525 510.525
 669.525 695.525 700.525 724.525 675.525
 441.525 437.525 413.525 455.525 438.525
 159.525 180.525 139.525 163.525 113.525
 10.405 10.415 10.425 10.435 10.445 10.455 10.465 10.475 10.485 10.495
 17.605 17.615 17.625 17.635 17.645 17.655 17.665 17.675 17.685 17.695
 24.805 24.815 24.825 24.835 24.845 24.855 24.865 24.875 24.885 24.895
 32.005 32.015 32.025 32.035 32.045 32.055 32.065 32.075 32.085 32.095
  674.  687.  729.  672.  729.  684.  727.  746.  755.  752.  695.  741.
  968.  976.  931.  999.  964.  954.  951.  913.  911.  948.  920.  935.
  285.  336.  346.  347.  295.  338.  319.  360.  319.  313.  310.  366.
 16.105 16.115 16.125 16.135 16.145 16.155 16.165 16.175 16.185 16.195
 23.305 23.315 23.325 23.335 23.345 23.355 23.365 23.375 23.385 23.395
  96.4632  107.463  126.463  52.4632
  124.463  142.463  148.463  122.463
  256.463  238.463  215.463  298.463
  544.463  552.463  583.463  565.463
  530.463  489.463  504.463  500.463
  181.463  164.463  178.463  139.463
 -62.5368 -95.5368 -67.5368 -68.5368
  686.536  697.536  731.536  762.536
   9.515   9.525   9.535   9.545   9.555   9.565   9.575   9.585   9.595
  15.995  16.005  16.015  16.025  16.035  16.045  16.055  16.065  16.075
  22.475  22.485  22.495  22.505  22.515  22.525  22.535  22.545  22.555
  28.955  28.965  28.975  28.985  28.995  29.005  29.015  29.025  29.035
  35.435  35.445  35.455  35.465  35.475  35.485  35.495  35.505  35.515
  41.915  41.925  41.935  41.945  41.955  41.965  41.975  41.985  41.995
  48.395  48.405  48.415  48.425  48.435  48.445  48.455  48.465  48.475
  54.875  54.885  54.895  54.905  54.915  54.925  54.935  54.945  54.955
  61.355  61.365  61.375  61.385  61.395  61.405  61.415  61.425  61.435
  67.835  67.845  67.855  67.865  67.875  67.885  67.895  67.905  67.915
  74.315  74.325  74.335  74.345  74.355  74.365  74.375  74.385  74.395
  80.795  80.805  80.815  80.825  80.835  80.845  80.855  80.865  80.875
  87.275  87.285  87.295  87.305  87.315  87.325  87.335  87.345  87.355
  93.755  93.765  93.775  93.785  93.795  93.805  93.815  93.825  93.835
 100.235 100.245 100.255 100.265 100.275 100.285 100.295 100.305 100.315
 106.715 106.725 106.735 106.745 106.755 106.765 106.775 106.785 106.795
 113.195 113.205 113.215 113.225 113.235 113.245 113.255 113.265 113.275
 119.675 119.685 119.695 119.705 119.715 119.725 119.735 119.745 119.755
 126.155 126.165 126.175 126.185 126.195 126.205 126.215 126.225 126.235
  544.  474.  536.  511.  521.  518.  517.  539.  519.  533.  512.  533.
 1060. 1143. 1077. 1061. 1068. 1096. 1137. 1101. 1018. 1100. 1105. 1091.
  672.  616.  635.  702.  654.  652.  722.  626.  653.  635.  601.  630.
  360.  391.  366.  367.  367.  366.  368.  365.  356.  371.  385.  381.
  302.  293.  341.  300.  309.  295.  307.  289.  310.  319.  307.  295.
  231.  252.  224.  271.  257.  241.  245.  266.  276.  239.  285.  228.
  222.  221.  232.  238.  195.  254.  234.  207.  218.  228.  242.  259.
  160.  198.  204.  193.  174.  174.  194.  222.  184.  184.  203.  190.
  188.  178.  177.  175.  175.  184.  180.  180.  172.  172.  180.  166.
  145.  154.  146.  129.  149.  155.  143.  164.  137.  155.  145.  159.
  120.  148.  159.  139.  132.  167.  144.  151.  151.  146.  131.  142.
  183.  180.  185.  170.  183.  172.  156.  194.  195.  200.  176.  179.
  233.  226.  217.  201.  226.  217.  247.  231.  223.  235.  212.  222.
  295.  301.  289.  268.  277.  252.  258.  292.  272.  281.  284.  262.
 14.505 14.515 14.525 14.535 14.545 14.555 14.565 14.575 14.585 14.595
 21.705 21.715 21.725 21.735 21.745 21.755 21.765 21.775 21.785 21.795
 28.905 28.915 28.925 28.935 28.945 28.955 28.965 28.975 28.985 28.995
  87.3829  28.3829  57.3829  61.3829
  218.383  262.383  221.383  168.383
  503.383  497.383  555.383  534.383
  838.383  750.383  865.383  814.383
  573.383  664.383  614.383  614.383
  232.383  262.383  278.383  195.383
  51.3829  41.3829  57.3829  11.3829
 -61.6171 -87.6171 -73.6171 -63.6171
 11.405 11.415 11.425 11.435 11.445 11.455 11.465 11.475 11.485 11.495
 18.605 18.615 18.625 18.635 18.645 18.655 18.665 18.675 18.685 18.695
 25.805 25.815 25.825 25.835 25.845 25.855 25.865 25.875 25.885 25.895
 33.005 33.015 33.025 33.035 33.045 33.055 33.065 33.075 33.085 33.095
  671.  575.  589.  624.  597.  661.  577.  634.  608.  598.  610.  618.
  915.  898.  964.  915.  874.  919.  945.  876.  865.  885.  890.  900.
  382.  396.  396.  376.  398.  393.  414.  417.  362.  402.  406.  433.
 18.105 18.115 18.125 18.135 18.145 18.155 18.165 18.175 18.185 18.195
 25.305 25.315 25.325 25.335 25.345 25.355 25.365 25.375 25.385 25.395
 34.505 34.515 34.525 34.535 34.545 34.555 34.565 34.575 34.585 34.595
  102.178  116.178  87.178  50.178
  297.178  258.178  308.178  268.178
  623.178  640.178  603.178  650.178
  599.178  653.178  638.178  653.178
  307.178  311.178  284.178  344.178
  133.178  117.178  107.178  121.178
  5.17805 -43.822  1.17805 -50.822
  1074.94  873.938  775.938  667.938
 15.105 15.115 15.125 15.135 15.145 15.155 15.165 15.175 15.185 15.195
 22.305 22.315 22.325 22.335 22.345 22.355 22.365 22.375 22.385 22.395
 29.505 29.515 29.525 29.535 29.545 29.555 29.565 29.575 29.585 29.595
  350.  365.  359.  370.  369.  368.  372.  363.  366.  348.  373.  362.
  822.  830.  895.  791.  834.  799.  796.  808.  791.  804.  823.  801.
  427.  410.  399.  379.  401.  425.  384.  404.  424.  404.  426.  444.
 14.605 14.615 14.625 14.635 14.645 14.655 14.665 14.675 14.685 14.695
 21.805 21.815 21.825 21.835 21.845 21.855 21.865 21.875 21.885 21.895
 -29.2646 -26.2646  11.7354  14.7354
  49.7354  39.7354  30.7354  102.735
  225.735  192.735  164.735  209.735
  445.735  437.735  470.735  439.735
  407.735  385.735  415.735  426.735
  200.735  159.735  173.735  218.735
 27.905 27.915 27.925 27.935 27.945 27.955 27.965 27.975 27.985 27.995
   7.085   7.095   7.105   7.115   7.125   7.135   7.145   7.155   7.165
  13.565  13.575  13.585  13.595  13.605  13.615  13.625  13.635  13.645
  20.045  20.055  20.065  20.075  20.085  20.095  20.105  20.115  20.125
  26.525  26.535  26.545  26.555  26.565  26.575  26.585  26.595  26.605
  33.005  33.015  33.025  33.035  33.045  33.055  33.065  33.075  33.085
  39.485  39.495  39.505  39.515  39.525  39.535  39.545  39.555  39.565
  45.965  45.975  45.985  45.995  46.005  46.015  46.025  46.035  46.045
  52.445  52.455  52.465  52.475  52.485  52.495  52.505  52.515  52.525
  58.925  58.935  58.945  58.955  58.965  58.975  58.985  58.995  59.005
  65.405  65.415  65.425  65.435  65.445  65.455  65.465  65.475  65.485
  71.885  71.895  71.905  71.915  71.925  71.935  71.945  71.955  71.965
  78.365  78.375  78.385  78.395  78.405  78.415  78.425  78.435  78.445
  84.845  84.855  84.865  84.875  84.885  84.895  84.905  84.915  84.925
  91.325  91.335  91.345  91.355  91.365  91.375  91.385  91.395  91.405
  97.805  97.815  97.825  97.835  97.845  97.855  97.865  97.875  97.885
 104.285 104.295 104.305 104.315 104.325 104.335 104.345 104.355 104.365
 110.765 110.775 110.785 110.795 110.805 110.815 110.825 110.835 110.845
 117.245 117.255 117.265 117.275 117.285 117.295 117.305 117.315 117.325
 123.725 123.735 123.745 123.755 123.765 123.775 123.785 123.795 123.805
  1149.  1150.  1163.  1168.  1175.  1127.  1193.  1202.  1155.  1182.
  1052.  1062.  1058.  1074.  1031.  1061.  1193.  1097.  1068.  1107.
  2407.  2502.  2451.  2465.  2495.  2413.  2389.  2490.  2539.  2377.
  1126.  1069.  1068.  1086.  1078.  1086.  1057.  1031.  1067.  1077.
   716.   764.   742.   739.   752.   734.   709.   755.   738.   796.
   620.   688.   611.   659.   608.   649.   592.   648.   626.   663.
   562.   583.   560.   589.   618.   628.   613.   603.   599.   621.
   591.   592.   560.   558.   567.   636.   610.   578.   679.   606.
   496.   508.   483.   504.   504.   471.   569.   514.   534.   495.
   407.   432.   464.   449.   460.   455.   462.   446.   451.   444.
   465.   431.   489.   503.   486.   473.   517.   483.   514.   485.
   438.   448.   422.   400.   444.   450.   439.   479.   478.   454.
   457.   466.   442.   466.   470.   474.   484.   465.   491.   492.
   358.   364.   340.   328.   375.   377.   337.   367.   371.   342.
   367.   404.   373.   413.   367.   394.   387.   377.   373.   409.
   459.   437.   416.   425.   460.   476.   446.   456.   421.   446.
   486.   466.   488.   508.   478.   490.   559.   498.   472.   531.
 12.905 12.915 12.925 12.935 12.945 12.955 12.965 12.975 12.985 12.995
 20.105 20.115 20.125 20.135 20.145 20.155 20.165 20.175 20.185 20.195
 27.305 27.315 27.325 27.335 27.345 27.355 27.365 27.375 27.385 27.395
  138.648  138.648  79.6484  162.648
  301.648  268.648  263.648  236.648
  854.648  879.648  795.648  776.648
  1521.65  1576.65  1523.65  1457.65
  1373.65  1360.65  1398.65  1389.65
  672.648  716.648  494.648  462.648
  143.648  242.648  168.648  202.648
  44.6484  12.6484  6.6484  23.6484
  73.0136  29.0136  46.0136  63.0136
 13.605 13.615 13.625 13.635 13.645 13.655 13.665 13.675 13.685 13.695
 20.805 20.815 20.825 20.835 20.845 20.855 20.865 20.875 20.885 20.895
 28.005 28.015 28.025 28.035 28.045 28.055 28.065 28.075 28.085 28.095
 35.205 35.215 35.225 35.235 35.245 35.255 35.265 35.275 35.285 35.295
 42.405 42.415 42.425 42.435 42.445 42.455 42.465 42.475 42.485 42.495
 49.605 49.615 49.625 49.635 49.645 49.655 49.665 49.675 49.685 49.695
 56.805 56.815 56.825 56.835 56.845 56.855 56.865 56.875 56.885 56.895
 2.085000e+03 2.174000e+03 2.068000e+03 2.107000e+03 2.056000e+03
 2.446000e+03 2.416000e+03 2.399000e+03 2.406000e+03 2.460000e+03
 3.303000e+03 3.326000e+03 3.409000e+03 3.357000e+03 3.352000e+03
 3.862000e+03 3.870000e+03 3.892000e+03 3.773000e+03 3.887000e+03
 2.686000e+03 2.749000e+03 2.688000e+03 2.649000e+03 2.536000e+03
 2.028000e+03 1.975000e+03 2.052000e+03 2.076000e+03 2.013000e+03
 1.569000e+03 1.472000e+03 1.684000e+03 1.582000e+03 1.421000e+03
 5.300000e+03 5.082000e+03 4.640000e+03 4.340000e+03 3.980000e+03
 1.199000e+03 1.165000e+03 1.211000e+03 1.184000e+03 1.174000e+03
 4.510000e+03 4.398000e+03 4.294000e+03 4.191000e+03 4.034000e+03
 1.120000e+03 1.057000e+03 1.032000e+03 1.017000e+03 1.056000e+03
 1.129000e+03 1.105000e+03 1.090000e+03 1.120000e+03 1.096000e+03
 5.180000e+03 5.277000e+03 5.470000e+03 5.557000e+03 5.894000e+03
 9.980000e+02 1.067000e+03 1.024000e+03 1.099000e+03 1.047000e+03
 19.005 19.015 19.025 19.035 19.045 19.055 19.065 19.075 19.085 19.095
 26.205 26.215 26.225 26.235 26.245 26.255 26.265 26.275 26.285 26.295
 33.405 33.415 33.425 33.435 33.445 33.455 33.465 33.475 33.485 33.495
  960.562  1001.56  1026.56  921.562
  1847.56  1812.56  1961.56  1762.56
  2477.56  2334.56  2341.56  2496.56
  1709.56  1616.56  1568.56  1796.56
  968.562  883.562  1047.56  858.562
  409.562  304.562  462.562  418.562
  129.562  16.5624  164.562  113.562
  2251  2343  2691  2919
   9.605   9.615   9.625   9.635   9.645   9.655   9.665   9.675   9.685
  16.085  16.095  16.105  16.115  16.125  16.135  16.145  16.155  16.165
  22.565  22.575  22.585  22.595  22.605  22.615  22.625  22.635  22.645
  29.045  29.055  29.065  29.075  29.085  29.095  29.105  29.115  29.125
  35.525  35.535  35.545  35.555  35.565  35.575  35.585  35.595  35.605
  42.005  42.015  42.025  42.035  42.045  42.055  42.065  42.075  42.085
  48.485  48.495  48.505  48.515  48.525  48.535  48.545  48.555  48.565
  54.965  54.975  54.985  54.995  55.005  55.015  55.025  55.035  55.045
  61.445  61.455  61.465  61.475  61.485  61.495  61.505  61.515  61.525
  67.925  67.935  67.945  67.955  67.965  67.975  67.985  67.995  68.005
  74.405  74.415  74.425  74.435  74.445  74.455  74.465  74.475  74.485
  80.885  80.895  80.905  80.915  80.925  80.935  80.945  80.955  80.965
  87.365  87.375  87.385  87.395  87.405  87.415  87.425  87.435  87.445
  93.845  93.855  93.865  93.875  93.885  93.895  93.905  93.915  93.925
 100.325 100.335 100.345 100.355 100.365 100.375 100.385 100.395 100.405
 106.805 106.815 106.825 106.835 106.845 106.855 106.865 106.875 106.885
 113.285 113.295 113.305 113.315 113.325 113.335 113.345 113.355 113.365
 119.765 119.775 119.785 119.795 119.805 119.815 119.825 119.835 119.845
 126.245 126.255 126.265 126.275 126.285 126.295 126.305 126.315 126.325
  1966.  1905.  1978.  1934.  1916.  1986.  1937.  1972.  1956.  1942.
  2490.  2429.  2524.  2398.  2450.  2452.  2480.  2467.  2351.  2422.
  2847.  2798.  2825.  2821.  2774.  2769.  2703.  2726.  2897.  2708.
  1350.  1472.  1409.  1549.  1349.  1370.  1455.  1453.  1494.  1392.
 10320. 10413. 10384. 10607. 10250. 10451. 10279. 10375. 10321. 10107.
  2969.  3255.  3323.  3423.  3618.  3667.  3870.  3861.  3979.  4227.
  1163.  1121.  1153.  1170.  1104.  1115.  1123.  1072.  1112.  1177.
   883.   869.   896.   798.   886.   846.   846.   886.   852.   868.
   730.   739.   756.   764.   757.   795.   758.   778.   807.   762.
   790.   758.   720.   691.   713.   701.   706.   672.   679.   750.
   882.   943.   902.   814.   872.   889.   842.   890.   812.   896.
   810.   787.   764.   791.   822.   766.   807.   775.   862.   766.
   588.   578.   645.   594.   589.   657.   590.   614.   632.   645.
   571.   568.   582.   618.   600.   652.   579.   581.   589.   635.
   595.   604.   633.   654.   594.   628.   618.   620.   645.   650.
   725.   688.   726.   713.   651.   710.   715.   701.   742.   734.
   876.   823.   825.   830.   859.   842.   816.   835.   831.   835.
 14.705 14.715 14.725 14.735 14.745 14.755 14.765 14.775 14.785 14.795
 21.905 21.915 21.925 21.935 21.945 21.955 21.965 21.975 21.985 21.995
 29.105 29.115 29.125 29.135 29.145 29.155 29.165 29.175 29.185 29.195
 36.305 36.315 36.325 36.335 36.345 36.355 36.365 36.375 36.385 36.395
  668.088  654.088  713.088  631.088
  1004.09  1037.09  960.088  1019.09
  1711.09  1649.09  1575.09  1676.09
  2159.09  2273.09  2344.09  2246.09
  1673.09  1605.09  1676.09  1593.09
  832.088  967.088  824.088  891.088
  1527.09  1310.09  1280.09  1346.09
  153.088  85.0883  151.088  22.0883
 -24.9117 -106.912 -33.9117 -22.9117
  134.402  63.4022  144.402  51.4022
   8.975   8.985   8.995   9.005   9.015   9.025   9.035   9.045   9.055
  15.455  15.465  15.475  15.485  15.495  15.505  15.515  15.525  15.535
  21.935  21.945  21.955  21.965  21.975  21.985  21.995  22.005  22.015
  28.415  28.425  28.435  28.445  28.455  28.465  28.475  28.485  28.495
  34.895  34.905  34.915  34.925  34.935  34.945  34.955  34.965  34.975
  41.375  41.385  41.395  41.405  41.415  41.425  41.435  41.445  41.455
  47.855  47.865  47.875  47.885  47.895  47.905  47.915  47.925  47.935
  54.335  54.345  54.355  54.365  54.375  54.385  54.395  54.405  54.415
  60.815  60.825  60.835  60.845  60.855  60.865  60.875  60.885  60.895
  67.295  67.305  67.315  67.325  67.335  67.345  67.355  67.365  67.375
  73.775  73.785  73.795  73.805  73.815  73.825  73.835  73.845  73.855
  80.255  80.265  80.275  80.285  80.295  80.305  80.315  80.325  80.335
  86.735  86.745  86.755  86.765  86.775  86.785  86.795  86.805  86.815
  93.215  93.225  93.235  93.245  93.255  93.265  93.275  93.285  93.295
  99.695  99.705  99.715  99.725  99.735  99.745  99.755  99.765  99.775
 106.175 106.185 106.195 106.205 106.215 106.225 106.235 106.245 106.255
 112.655 112.665 112.675 112.685 112.695 112.705 112.715 112.725 112.735
 119.135 119.145 119.155 119.165 119.175 119.185 119.195 119.205 119.215
 125.615 125.625 125.635 125.645 125.655 125.665 125.675 125.685 125.695
  4166.  4220.  4070.  4181.  4105.  4163.  4144.  4178.  4243.  4067.
  3972.  4028.  3974.  4095.  3983.  4115.  3946.  3950.  3927.  4045.
  5212.  5082.  5126.  5011.  5128.  5087.  5061.  4894.  5111.  5215.
  2792.  2849.  2744.  2779.  2795.  2831.  2778.  2851.  2773.  2891.
  2218.  2207.  2135.  2264.  2279.  2191.  2230.  2239.  2277.  2220.
  1965.  2061.  1974.  2093.  1947.  2068.  2068.  1970.  2016.  2007.
  2164.  2164.  2219.  2066.  2125.  2174.  2041.  2143.  2069.  2135.
 39531. 40137. 39541. 39634. 39466. 39400. 39161. 38514. 37609. 37620.
  1294.  1320.  1263.  1300.  1325.  1387.  1278.  1288.  1306.  1351.
  1214.  1223.  1224.  1185.  1262.  1252.  1173.  1202.  1286.  1197.
  1404.  1544.  1294.  1621.  1574.  1643.  1508.  1559.  1444.  1582.
  1833.  1816.  1774.  1741.  1652.  1707.  1706.  1721.  1705.  1745.
  1016.  1035.  1015.   996.  1096.  1014.  1031.  1035.  1026.  1041.
  1155.  1107.  1189.  1063.  1070.  1074.   996.   943.   984.  1064.
   995.  1032.  1049.   998.  1011.  1048.   983.  1042.   996.  1059.
  1197.  1103.  1199.  1222.  1170.  1154.  1165.  1158.  1134.  1170.
  1556.  1495.  1437.  1554.  1393.  1351.  1425.  1305.  1387.  1467.
 15.005 15.015 15.025 15.035 15.045 15.055 15.065 15.075 15.085 15.095
 22.205 22.215 22.225 22.235 22.245 22.255 22.265 22.275 22.285 22.295
 29.405 29.415 29.425 29.435 29.445 29.455 29.465 29.475 29.485 29.495
  360.018  413.018  419.018  377.018
  1086.02  989.018  991.018  1136.02
  2065.02  2199.02  2171.02  2196.02
  2469.02  2479.02  2402.02  2440.02
  1102.02  1082.02  1127.02  1047.02
  203.018  16.0176  166.018  126.018
 60.505 60.515 60.525 60.535 60.545 60.555 60.565 60.575 60.585 60.595
   7.625   7.635   7.645   7.655   7.665   7.675   7.685   7.695   7.705
  14.105  14.115  14.125  14.135  14.145  14.155  14.165  14.175  14.185
  20.585  20.595  20.605  20.615  20.625  20.635  20.645  20.655  20.665
  27.065  27.075  27.085  27.095  27.105  27.115  27.125  27.135  27.145
  33.545  33.555  33.565  33.575  33.585  33.595  33.605  33.615  33.625
  40.025  40.035  40.045  40.055  40.065  40.075  40.085  40.095  40.105
  46.505  46.515  46.525  46.535  46.545  46.555  46.565  46.575  46.585
  52.985  52.995  53.005  53.015  53.025  53.035  53.045  53.055  53.065
  59.465  59.475  59.485  59.495  59.505  59.515  59.525  59.535  59.545
  65.945  65.955  65.965  65.975  65.985  65.995  66.005  66.015  66.025
  72.425  72.435  72.445  72.455  72.465  72.475  72.485  72.495  72.505
  78.905  78.915  78.925  78.935  78.945  78.955  78.965  78.975  78.985
  85.385  85.395  85.405  85.415  85.425  85.435  85.445  85.455  85.465
  91.865  91.875  91.885  91.895  91.905  91.915  91.925  91.935  91.945
  98.345  98.355  98.365  98.375  98.385  98.395  98.405  98.415  98.425
 104.825 104.835 104.845 104.855 104.865 104.875 104.885 104.895 104.905
 111.305 111.315 111.325 111.335 111.345 111.355 111.365 111.375 111.385
 117.785 117.795 117.805 117.815 117.825 117.835 117.845 117.855 117.865
 124.265 124.275 124.285 124.295 124.305 124.315 124.325 124.335 124.345
  3823.  3823.  4038.  3909.  3717.  3868.  3768.  3834.  3891.  3857.
  3379.  3367.  3386.  3427.  3403.  3411.  3341.  3457.  3312.  3359.
  5147.  5225.  5338.  5191.  5207.  5109.  5076.  5137.  5055.  5092.
  2810.  2742.  2880.  2764.  2756.  2708.  2886.  2868.  2834.  2813.
  2093.  2068.  2151.  2058.  2161.  2175.  2066.  2099.  2079.  2161.
  1956.  1912.  1914.  1965.  1917.  1907.  1908.  1902.  1853.  1934.
  1908.  1929.  1861.  1914.  1927.  1990.  1901.  2004.  1955.  1898.
  2139.  2094.  2097.  2054.  2059.  2128.  2119.  2041.  2001.  2084.
  1298.  1384.  1184.  1351.  1271.  1376.  1384.  1357.  1402.  1286.
  1160.  1219.  1305.  1213.  1238.  1232.  1217.  1238.  1193.  1221.
  1320.  1309.  1320.  1415.  1423.  1502.  1437.  1398.  1336.  1280.
  2659.  2613.  2635.  2584.  2648.  2631.  2595.  2576.  2649.  2663.
  1114.  1126.  1059.  1116.  1146.  1135.  1165.  1059.  1115.  1126.
  1043.  1069.  1062.  1079.  1072.  1096.  1087.  1173.  1045.  1160.
   993.  1031.   981.  1017.  1011.   995.  1023.  1025.  1032.   943.
  1141.  1144.  1087.  1068.  1102.  1165.  1114.  1173.  1113.  1158.
  1308.  1212.  1335.  1346.  1404.  1371.  1359.  1353.  1374.  1297.
 14.505 14.515 14.525 14.535 14.545 14.555 14.565 14.575 14.585 14.595
 21.705 21.715 21.725 21.735 21.745 21.755 21.765 21.775 21.785 21.795
 28.905 28.915 28.925 28.935 28.945 28.955 28.965 28.975 28.985 28.995
  629.354  770.354  729.354  703.354
  1269.35  1286.35  1275.35  1274.35
  2411.35  2392.35  2182.35  2504.35
  2681.35  2450.35  2510.35  2434.35
  1282.35  1259.35  1253.35  1211.35
  411.354  375.354  333.354  425.354
  87.3537 -45.6463 -5.64628  103.354
 -1017.77 -1024.77 -1008.77 -1082.77
   6.455   6.465   6.475   6.485   6.495   6.505   6.515   6.525   6.535
  12.935  12.945  12.955  12.965  12.975  12.985  12.995  13.005  13.015
  19.415  19.425  19.435  19.445  19.455  19.465  19.475  19.485  19.495
  25.895  25.905  25.915  25.925  25.935  25.945  25.955  25.965  25.975
  32.375  32.385  32.395  32.405  32.415  32.425  32.435  32.445  32.455
  38.855  38.865  38.875  38.885  38.895  38.905  38.915  38.925  38.935
  45.335  45.345  45.355  45.365  45.375  45.385  45.395  45.405  45.415
  51.815  51.825  51.835  51.845  51.855  51.865  51.875  51.885  51.895
  58.295  58.305  58.315  58.325  58.335  58.345  58.355  58.365  58.375
  64.775  64.785  64.795  64.805  64.815  64.825  64.835  64.845  64.855
  71.255  71.265  71.275  71.285  71.295  71.305  71.315  71.325  71.335
  77.735  77.745  77.755  77.765  77.775  77.785  77.795  77.805  77.815
  84.215  84.225  84.235  84.245  84.255  84.265  84.275  84.285  84.295
  90.695  90.705  90.715  90.725  90.735  90.745  90.755  90.765  90.775
  97.175  97.185  97.195  97.205  97.215  97.225  97.235  97.245  97.255
 103.655 103.665 103.675 103.685 103.695 103.705 103.715 103.725 103.735
 110.135 110.145 110.155 110.165 110.175 110.185 110.195 110.205 110.215
 116.615 116.625 116.635 116.645 116.655 116.665 116.675 116.685 116.695
 123.095 123.105 123.115 123.125 123.135 123.145 123.155 123.165 123.175
  3774.  3817.  3773.  3756.  3796.  3743.  3838.  3810.  3677.  3890.
  3593.  3318.  3289.  3095.  3194.  3139.  3097.  3107.  2875.  2947.
  4738.  4618.  4673.  4651.  4756.  4792.  4773.  4835.  4686.  4645.
  2983.  2861.  2888.  2839.  2806.  2760.  2803.  2950.  2837.  2866.
  2139.  2136.  2027.  2073.  1976.  2161.  2127.  2076.  2042.  2034.
  1755.  1779.  1694.  1790.  1795.  1885.  1766.  1794.  1792.  1830.
  1633.  1737.  1769.  1723.  1587.  1818.  1731.  1648.  1757.  1781.
  2167.  2275.  2187.  2186.  2084.  2193.  2301.  2214.  2261.  2315.
  4015.  3787.  3573.  3097.  2917.  2754.  2561.  2399.  2165.  2187.
  1143.  1114.  1199.  1102.  1069.  1181.  1091.  1089.  1033.  1047.
  1295.  1333.  1292.  1431.  1366.  1410.  1555.  1365.  1352.  1337.
  4386.  4545.  4451.  4482.  4442.  4591.  4579.  4472.  4575.  4619.
  1090.  1149.  1160.  1218.  1101.  1234.  1173.  1170.  1098.  1101.
   911.   970.   956.   916.   940.   907.  1005.   979.   956.   959.
   948.   947.   909.   957.   996.   935.   963.   947.   955.   992.
  1023.  1029.   973.  1068.  1030.  1009.   984.   996.   968.  1078.
  1193.  1191.  1229.  1117.  1155.  1180.  1164.  1127.  1153.  1193.
 14.705 14.715 14.725 14.735 14.745 14.755 14.765 14.775 14.785 14.795
 21.905 21.915 21.925 21.935 21.945 21.955 21.965 21.975 21.985 21.995
 29.105 29.115 29.125 29.135 29.145 29.155 29.165 29.175 29.185 29.195
  941.853  919.853  854.853  913.853
  1619.85  1508.85  1512.85  1512.85
  2419.85  2419.85  2497.85  2434.85
  1906.85  1817.85  1986.85  1985.85
  805.853  847.853  836.853  864.853
  226.853  131.853  352.853  163.853
 -75.1474 -35.1474 -97.1474 -14.1474
  13.1108  45.1108 -36.8892 -89.8892
 -116.889 -54.8892 -16.8892 -69.8892
  10.145  10.155  10.165  10.175  10.185  10.195  10.205  10.215  10.225
  16.625  16.635  16.645  16.655  16.665  16.675  16.685  16.695  16.705
  23.105  23.115  23.125  23.135  23.145  23.155  23.165  23.175  23.185
  29.585  29.595  29.605  29.615  29.625  29.635  29.645  29.655  29.665
  36.065  36.075  36.085  36.095  36.105  36.115  36.125  36.135  36.145
  42.545  42.555  42.565  42.575  42.585  42.595  42.605  42.615  42.625
  49.025  49.035  49.045  49.055  49.065  49.075  49.085  49.095  49.105
  55.505  55.515  55.525  55.535  55.545  55.555  55.565  55.575  55.585
  61.985  61.995  62.005  62.015  62.025  62.035  62.045  62.055  62.065
  68.465  68.475  68.485  68.495  68.505  68.515  68.525  68.535  68.545
  74.945  74.955  74.965  74.975  74.985  74.995  75.005  75.015  75.025
  81.425  81.435  81.445  81.455  81.465  81.475  81.485  81.495  81.505
  87.905  87.915  87.925  87.935  87.945  87.955  87.965  87.975  87.985
  94.385  94.395  94.405  94.415  94.425  94.435  94.445  94.455  94.465
 100.865 100.875 100.885 100.895 100.905 100.915 100.925 100.935 100.945
 107.345 107.355 107.365 107.375 107.385 107.395 107.405 107.415 107.425
 113.825 113.835 113.845 113.855 113.865 113.875 113.885 113.895 113.905
 120.305 120.315 120.325 120.335 120.345 120.355 120.365 120.375 120.385
 126.785 126.795 126.805 126.815 126.825 126.835 126.845 126.855 126.865
  2756.  2764.  2858.  2799.  2876.  2836.  2928.  2843.  2744.  2677.
  3533.  3435.  3410.  3569.  3442.  3531.  3522.  3454.  3561.  3483.
  3476.  3400.  3420.  3352.  3493.  3522.  3526.  3403.  3395.  3455.
  2128.  2142.  2097.  2034.  2077.  2157.  2001.  2048.  2077.  2129.
  1651.  1879.  1626.  1803.  1742.  1742.  1788.  1778.  1769.  1664.
  4628.  4748.  5084.  4980.  5174.  5329.  5382.  5756.  5709.  5867.
  2534.  2661.  2644.  2813.  2918.  2942.  3021.  3059.  3204.  3309.
  1351.  1355.  1326.  1318.  1356.  1435.  1265.  1366.  1318.  1338.
  1136.  1058.  1053.  1091.  1133.  1039.  1139.  1091.  1071.  1033.
  1054.  1102.  1090.  1075.  1057.  1124.  1096.  1092.  1048.  1087.
  1639.  1654.  1710.  1723.  1703.  1689.  1745.  1741.  1800.  1754.
  2127.  2130.  2129.  2101.  2157.  2133.  2173.  2256.  2108.  2167.
   986.   966.   947.   965.   971.   936.   923.   942.   990.  1011.
   874.   969.   897.   875.   920.   922.   924.   909.   892.   963.
   943.   914.   962.   975.  1016.   996.   957.   968.   922.   948.
   994.  1092.  1007.   959.  1045.   975.  1001.  1011.   998.  1047.
  1196.  1297.  1309.  1306.  1150.  1243.  1260.  1201.  1225.  1141.
 17.805 17.815 17.825 17.835 17.845 17.855 17.865 17.875 17.885 17.895
 25.005 25.015 25.025 25.035 25.045 25.055 25.065 25.075 25.085 25.095
  409.611  453.611  325.611  363.611
  785.611  777.611  677.611  739.611
  1543.61  1504.61  1491.61  1409.61
  1928.61  1873.61  1910.61  1979.61
  1128.61  1200.61  971.611  1034.61
  317.611  222.611  303.611  307.611
 -166.389 -218.389 -189.389 -94.3891
  7213.4  6697.4  6115.4  5921.4
  11.855  11.865  11.875  11.885  11.895  11.905  11.915  11.925  11.935
  18.335  18.345  18.355  18.365  18.375  18.385  18.395  18.405  18.415
  24.815  24.825  24.835  24.845  24.855  24.865  24.875  24.885  24.895
  31.295  31.305  31.315  31.325  31.335  31.345  31.355  31.365  31.375
  37.775  37.785  37.795  37.805  37.815  37.825  37.835  37.845  37.855
  44.255  44.265  44.275  44.285  44.295  44.305  44.315  44.325  44.335
  50.735  50.745  50.755  50.765  50.775  50.785  50.795  50.805  50.815
  57.215  57.225  57.235  57.245  57.255  57.265  57.275  57.285  57.295
  63.695  63.705  63.715  63.725  63.735  63.745  63.755  63.765  63.775
  70.175  70.185  70.195  70.205  70.215  70.225  70.235  70.245  70.255
  76.655  76.665  76.675  76.685  76.695  76.705  76.715  76.725  76.735
  83.135  83.145  83.155  83.165  83.175  83.185  83.195  83.205  83.215
  89.615  89.625  89.635  89.645  89.655  89.665  89.675  89.685  89.695
  96.095  96.105  96.115  96.125  96.135  96.145  96.155  96.165  96.175
 102.575 102.585 102.595 102.605 102.615 102.625 102.635 102.645 102.655
 109.055 109.065 109.075 109.085 109.095 109.105 109.115 109.125 109.135
 115.535 115.545 115.555 115.565 115.575 115.585 115.595 115.605 115.615
 122.015 122.025 122.035 122.045 122.055 122.065 122.075 122.085 122.095
 128.495 128.505 128.515 128.525 128.535 128.545 128.555 128.565 128.575
 5.826000e+03 5.873000e+03 5.859000e+03 5.876000e+03 5.626000e+03
 5.111000e+03 5.257000e+03 5.283000e+03 5.174000e+03 5.241000e+03
 6.043000e+03 6.093000e+03 6.345000e+03 6.052000e+03 6.184000e+03
 7.408000e+03 7.405000e+03 7.418000e+03 7.592000e+03 7.583000e+03
 7.167000e+03 7.186000e+03 7.343000e+03 7.175000e+03 7.164000e+03
 5.249000e+03 5.281000e+03 5.145000e+03 5.148000e+03 5.200000e+03
 4.119000e+03 4.143000e+03 4.266000e+03 4.298000e+03 4.216000e+03
 3.778000e+03 3.639000e+03 3.777000e+03 3.764000e+03 3.724000e+03
 3.397000e+03 3.445000e+03 3.365000e+03 3.350000e+03 3.416000e+03
 3.350000e+03 3.323000e+03 3.302000e+03 3.273000e+03 3.246000e+03
 3.159000e+03 3.055000e+03 3.149000e+03 3.148000e+03 3.061000e+03
 7.500000e+03 7.644000e+03 7.714000e+03 7.686000e+03 7.562000e+03
 3.120000e+03 3.119000e+03 3.110000e+03 3.084000e+03 3.112000e+03
 6.824000e+03 6.731000e+03 6.764000e+03 6.753000e+03 6.783000e+03
 3.319000e+03 3.214000e+03 3.296000e+03 3.191000e+03 3.164000e+03
 2.471000e+03 2.575000e+03 2.601000e+03 2.506000e+03 2.496000e+03
 2.403000e+03 2.444000e+03 2.409000e+03 2.437000e+03 2.488000e+03
 2.224000e+03 2.046000e+03 2.238000e+03 2.225000e+03 2.254000e+03
 2.088000e+03 2.177000e+03 2.070000e+03 2.058000e+03 2.037000e+03
 2.093000e+03 2.185000e+03 2.190000e+03 2.142000e+03 2.252000e+03
 2.452000e+03 2.449000e+03 2.490000e+03 2.404000e+03 2.402000e+03
 4.175000e+03 4.109000e+03 4.051000e+03 4.261000e+03 4.218000e+03
 1.512700e+04 1.481100e+04 1.414800e+04 1.389400e+04 1.340300e+04
 2.706000e+03 2.648000e+03 2.675000e+03 2.692000e+03 2.741000e+03
 2.055000e+03 2.001000e+03 1.889000e+03 1.943000e+03 2.005000e+03
 1.786000e+03 1.731000e+03 1.819000e+03 1.825000e+03 1.757000e+03
 1.825000e+03 1.739000e+03 1.583000e+03 1.865000e+03 1.741000e+03
 1.668000e+03 1.767000e+03 1.781000e+03 1.799000e+03 1.806000e+03
 1.881000e+03 1.950000e+03 1.961000e+03 1.826000e+03 2.010000e+03
 1.955000e+03 1.834000e+03 1.873000e+03 1.908000e+03 1.843000e+03
 2.014000e+03 1.985000e+03 2.019000e+03 2.121000e+03 2.053000e+03
 2.123000e+03 2.061000e+03 2.179000e+03 2.159000e+03 2.093000e+03
 2.378000e+03 2.310000e+03 2.293000e+03 2.348000e+03 2.322000e+03
 2.576000e+03 2.655000e+03 2.592000e+03 2.520000e+03 2.657000e+03
 22.605 22.615 22.625 22.635 22.645 22.655 22.665 22.675 22.685 22.695
 29.805 29.815 29.825 29.835 29.845 29.855 29.865 29.875 29.885 29.895
  1483.18  1707.18  1804.18  1634.18
  4138.18  4006.18  4023.18  3984.18
  3286.18  3316.18  3473.18  3329.18
  1886.18  1644.18  1822.18  1673.18
  660.179  833.179  665.179  723.179
  181.179  205.179  186.179  120.179
 18.905 18.915 18.925 18.935 18.945 18.955 18.965 18.975 18.985 18.995]","[-345.6 -357.6 -494.6 -379.6
  16874.4  16160.4  15535.4  14783.4
   9.965   9.975   9.985   9.995  10.005  10.015  10.025  10.035  10.045
  16.445  16.455  16.465  16.475  16.485  16.495  16.505  16.515  16.525
  22.925  22.935  22.945  22.955  22.965  22.975  22.985  22.995  23.005
  29.405  29.415  29.425  29.435  29.445  29.455  29.465  29.475  29.485
  35.885  35.895  35.905  35.915  35.925  35.935  35.945  35.955  35.965
  42.365  42.375  42.385  42.395  42.405  42.415  42.425  42.435  42.445
  48.845  48.855  48.865  48.875  48.885  48.895  48.905  48.915  48.925
  55.325  55.335  55.345  55.355  55.365  55.375  55.385  55.395  55.405
  61.805  61.815  61.825  61.835  61.845  61.855  61.865  61.875  61.885
  68.285  68.295  68.305  68.315  68.325  68.335  68.345  68.355  68.365
  74.765  74.775  74.785  74.795  74.805  74.815  74.825  74.835  74.845
  81.245  81.255  81.265  81.275  81.285  81.295  81.305  81.315  81.325
  87.725  87.735  87.745  87.755  87.765  87.775  87.785  87.795  87.805
  94.205  94.215  94.225  94.235  94.245  94.255  94.265  94.275  94.285
 100.685 100.695 100.705 100.715 100.725 100.735 100.745 100.755 100.765
 107.165 107.175 107.185 107.195 107.205 107.215 107.225 107.235 107.245
 113.645 113.655 113.665 113.675 113.685 113.695 113.705 113.715 113.725
 120.125 120.135 120.145 120.155 120.165 120.175 120.185 120.195 120.205
 126.605 126.615 126.625 126.635 126.645 126.655 126.665 126.675 126.685
  5136.  5131.  5181.  5130.  5098.  5108.  5274.  5076.  5195.  5180.
  6170.  6310.  6353.  6105.  6266.  6183.  6184.  6237.  6179.  6353.
  5927.  6085.  6361.  5983.  6147.  6040.  6196.  6176.  6001.  6111.
  3830.  3872.  3766.  3904.  3856.  3743.  3726.  3843.  3866.  3883.
  3064.  3175.  3197.  3239.  3237.  3249.  3214.  3149.  3178.  3179.
  2986.  2897.  2949.  3026.  2988.  3116.  3013.  3139.  3060.  3063.
  3154.  3125.  3063.  3207.  3190.  3121.  3174.  3151.  3092.  3177.
  2693.  2847.  2843.  2844.  2769.  2895.  2770.  2916.  2891.  2812.
  2125.  2245.  2230.  2268.  2194.  2229.  2301.  2237.  2289.  2243.
  2118.  2173.  2108.  2048.  2176.  2036.  2116.  2143.  2148.  2156.
  2630.  2582.  2653.  2641.  2658.  2582.  2598.  2560.  2736.  2506.
 32926. 33030. 32789. 32238. 32568. 32501. 32227. 32073. 32040. 31841.
  1996.  2015.  2011.  2076.  2037.  1991.  2034.  2065.  2025.  1977.
  1846.  1829.  1824.  1830.  1876.  1709.  1738.  1815.  1759.  1828.
  1885.  1924.  1914.  1761.  1907.  1827.  1950.  1787.  1945.  1832.
  2129.  2145.  2023.  2127.  2214.  2183.  2131.  2044.  2166.  2151.
  2408.  2565.  2530.  2496.  2363.  2440.  2403.  2517.  2319.  2511.
 21.105 21.115 21.125 21.135 21.145 21.155 21.165 21.175 21.185 21.195
 28.305 28.315 28.325 28.335 28.345 28.355 28.365 28.375 28.385 28.395
  1239.46  1217.46  1253.46  1246.46
  1992.46  2012.46  1803.46  2017.46
  3554.46  3511.46  3362.46  3516.46
  1952.46  1931.46  1939.46  1899.46
  841.46  699.46  868.46  910.46
  127.46  359.46  177.46  201.46
 -37.5404 -23.5404 -168.54 -209.54
  12198.3  12395.3  12328.3  11931.3
 12.905 12.915 12.925 12.935 12.945 12.955 12.965 12.975 12.985 12.995
 20.105 20.115 20.125 20.135 20.145 20.155 20.165 20.175 20.185 20.195
 27.305 27.315 27.325 27.335 27.345 27.355 27.365 27.375 27.385 27.395
 34.505 34.515 34.525 34.535 34.545 34.555 34.565 34.575 34.585 34.595
  5228.  5140.  5231.  5157.  5240.  5113.  5219.  5265.  5274.  5140.
  6466.  6467.  6373.  6575.  6427.  6463.  6433.  6626.  6536.  6432.
  3973.  3839.  3957.  3937.  3919.  3905.  3861.  3871.  3933.  3924.
 15.505 15.515 15.525 15.535 15.545 15.555 15.565 15.575 15.585 15.595
 25.705 25.715 25.725 25.735 25.745 25.755 25.765 25.775 25.785 25.795
 32.905 32.915 32.925 32.935 32.945 32.955 32.965 32.975 32.985 32.995
  774.545  784.545  818.545  736.545
  1369.55  1373.55  1326.55  1514.55
  3286.55  3282.55  3096.55  3070.55
  1698.55  1666.55  1691.55  1733.55
  652.545  678.545  614.545  603.545
  57.5453 -75.4547 -52.4547  56.5453
 -331.455 -442.455 -424.455 -374.455
 -31031.3 -31085.3 -30877.3 -30830.3
 12.505 12.515 12.525 12.535 12.545 12.555 12.565 12.575 12.585 12.595
 19.705 19.715 19.725 19.735 19.745 19.755 19.765 19.775 19.785 19.795
 26.905 26.915 26.925 26.935 26.945 26.955 26.965 26.975 26.985 26.995
 34.105 34.115 34.125 34.135 34.145 34.155 34.165 34.175 34.185 34.195
  4645.  4789.  4753.  4811.  4823.  4629.  4714.  4747.  4678.  4780.
 30755. 31349. 32334. 32374. 33119. 33447. 33501. 33250. 33317. 33350.
  3779.  3931.  3864.  3791.  3799.  3658.  3756.  3768.  3856.  3799.
 17.105 17.115 17.125 17.135 17.145 17.155 17.165 17.175 17.185 17.195
 28.305 28.315 28.325 28.335 28.345 28.355 28.365 28.375 28.385 28.395
  941.092  897.092  1036.09  851.092
  1666.09  1648.09  1573.09  1640.09
  2920.09  2753.09  2812.09  2741.09
  1588.09  1548.09  1648.09  1572.09
  635.092  694.092  692.092  737.092
  118.092  158.092  193.092  259.092
 22.405 22.415 22.425 22.435 22.445 22.455 22.465 22.475 22.485 22.495
  7929.02  8591.02  9108.02  10002
 11.905 11.915 11.925 11.935 11.945 11.955 11.965 11.975 11.985 11.995
 19.105 19.115 19.125 19.135 19.145 19.155 19.165 19.175 19.185 19.195
 26.305 26.315 26.325 26.335 26.345 26.355 26.365 26.375 26.385 26.395
 33.505 33.515 33.525 33.535 33.545 33.555 33.565 33.575 33.585 33.595
  4095.  4135.  4174.  4171.  4228.  4172.  4180.  4294.  4291.  4145.
  6116.  5959.  6114.  5975.  5903.  6045.  6141.  5986.  6074.  6062.
  3736.  3632.  3725.  3724.  3698.  3696.  3732.  3679.  3726.  3644.
 15.505 15.515 15.525 15.535 15.545 15.555 15.565 15.575 15.585 15.595
 22.705 22.715 22.725 22.735 22.745 22.755 22.765 22.775 22.785 22.795
 33.905 33.915 33.925 33.935 33.945 33.955 33.965 33.975 33.985 33.995
  910.372  922.372  909.372  871.372
  1627.37  1826.37  1825.37  1822.37
  2901.37  2762.37  2894.37  2784.37
  1049.37  1071.37  912.372  1022.37
  452.372  315.372  290.372  304.372
 -15.6285 -78.6285 -151.628 -28.6285
  643.568  598.568  530.568  679.568
  1247.57  966.568  620.568  281.568
 17.005 17.015 17.025 17.035 17.045 17.055 17.065 17.075 17.085 17.095
 24.205 24.215 24.225 24.235 24.245 24.255 24.265 24.275 24.285 24.295
 31.405 31.415 31.425 31.435 31.445 31.455 31.465 31.475 31.485 31.495
  3487.  3418.  3481.  3565.  3543.  3411.  3448.  3565.  3464.  3521.
  5693.  5536.  5598.  5469.  5517.  5563.  5524.  5442.  5296.  5531.
  5967.  5830.  5389.  5275.  5081.  4910.  4579.  4718.  4774.  4652.
  3022.  2908.  3015.  2871.  2896.  2882.  2918.  2937.  2914.  2998.
 18.605 18.615 18.625 18.635 18.645 18.655 18.665 18.675 18.685 18.695
 29.805 29.815 29.825 29.835 29.845 29.855 29.865 29.875 29.885 29.895
  218.477  368.477  291.477  320.477
  946.477  841.477  988.477  896.477
  1884.48  2083.48  1948.48  1865.48
  2773.48  2733.48  2840.48  2783.48
  2192.48  2194.48  2208.48  2192.48
  489.477  412.477  338.477  422.477
  74.4767  158.477  112.477  113.477
 25.605 25.615 25.625 25.635 25.645 25.655 25.665 25.675 25.685 25.695
  224.054  421.054  375.054  334.054
 16.105 16.115 16.125 16.135 16.145 16.155 16.165 16.175 16.185 16.195
 23.305 23.315 23.325 23.335 23.345 23.355 23.365 23.375 23.385 23.395
 30.505 30.515 30.525 30.535 30.545 30.555 30.565 30.575 30.585 30.595
 37.705 37.715 37.725 37.735 37.745 37.755 37.765 37.775 37.785 37.795
  4713.  4888.  4859.  4860.  4836.  4843.  4948.  4828.  4746.  4889.
  4092.  4049.  4034.  4085.  4054.  4110.  4002.  4055.  4131.  4086.
  2921.  2874.  2915.  2930.  2941.  3041.  2889.  2993.  3006.  2905.
 16.705 16.715 16.725 16.735 16.745 16.755 16.765 16.775 16.785 16.795
 23.905 23.915 23.925 23.935 23.945 23.955 23.965 23.975 23.985 23.995
 35.105 35.115 35.125 35.135 35.145 35.155 35.165 35.175 35.185 35.195
  910.599  915.599  860.599  922.599
  1843.6  1770.6  1797.6  1619.6
  2496.6  2398.6  2587.6  2390.6
  1760.6  1791.6  1915.6  1854.6
  587.599  477.599  435.599  619.599
  40.5987  78.5987  83.5987  51.5987
 -137.401 -130.401 -178.401 -100.401
 30.905 30.915 30.925 30.935 30.945 30.955 30.965 30.975 30.985 30.995]","[ 265.66  105.66  33.6605  287.66
  14194.7  13479.7  12673.7  12111.7
 19.405 19.415 19.425 19.435 19.445 19.455 19.465 19.475 19.485 19.495
 26.605 26.615 26.625 26.635 26.645 26.655 26.665 26.675 26.685 26.695
 33.805 33.815 33.825 33.835 33.845 33.855 33.865 33.875 33.885 33.895
  3225.  3121.  3286.  3218.  3188.  3256.  3223.  3256.  3181.  3315.
  4787.  4711.  4774.  4702.  4726.  4726.  4714.  4593.  4725.  4760.
  3626.  3508.  3609.  3619.  3616.  3615.  3641.  3613.  3674.  3727.
  2566.  2580.  2555.  2626.  2565.  2437.  2474.  2595.  2500.  2428.
 20.005 20.015 20.025 20.035 20.045 20.055 20.065 20.075 20.085 20.095
 27.205 27.215 27.225 27.235 27.245 27.255 27.265 27.275 27.285 27.295
 5414.08 5313.08 5401.08 5413.08 5357.08
 6554.08 6627.08 6541.08 6597.08 6569.08
 5976.08 5963.08 5954.08 5911.08 5960.08
 5136.08 5239.08 5266.08 5098.08 5029.08
  7573.79  7839.79  7849.79  8103.79
 -394.209 -293.209 -306.209 -343.209
 21.905 21.915 21.925 21.935 21.945 21.955 21.965 21.975 21.985 21.995
 29.105 29.115 29.125 29.135 29.145 29.155 29.165 29.175 29.185 29.195
 36.305 36.315 36.325 36.335 36.345 36.355 36.365 36.375 36.385 36.395
  3587.  3710.  3667.  3607.  3590.  3590.  3738.  3712.  3659.  3645.
  3708.  3761.  3708.  3679.  3799.  3713.  3693.  3780.  3778.  3746.
 10994. 11582. 11127. 11576. 11637. 11633. 11625. 11426. 11042. 10657.
 15.305 15.315 15.325 15.335 15.345 15.355 15.365 15.375 15.385 15.395
 22.505 22.515 22.525 22.535 22.545 22.555 22.565 22.575 22.585 22.595
 1905.6 1891.6 1872.6 1917.6 1820.6
 3236.6 3216.6 3224.6 3362.6 3140.6
 3981.6 3993.6 4162.6 4173.6 4067.6
 3123.6 3205.6 3138.6 3152.6 3113.6
 32.705 32.715 32.725 32.735 32.745 32.755 32.765 32.775 32.785 32.795
  8073.15  8661.15  8206.15  8655.15
 17.205 17.215 17.225 17.235 17.245 17.255 17.265 17.275 17.285 17.295
 24.405 24.415 24.425 24.435 24.445 24.455 24.465 24.475 24.485 24.495
 31.605 31.615 31.625 31.635 31.645 31.655 31.665 31.675 31.685 31.695
 38.805 38.815 38.825 38.835 38.845 38.855 38.865 38.875 38.885 38.895
  3951.  3957.  3933.  3967.  4019.  3966.  3947.  3979.  3945.  3999.
  3187.  3013.  3130.  2958.  3054.  3105.  3091.  3243.  3057.  3047.
 13986. 14244. 14470. 14607. 14631. 14937. 15099. 15107. 15355. 14886.
 20.805 20.815 20.825 20.835 20.845 20.855 20.865 20.875 20.885 20.895
 2593.46 2708.46 2661.46 2777.46 2657.46
 3488.46 3634.46 3479.46 3429.46 3627.46
 3067.46 2904.46 2975.46 2940.46 3098.46
  249.669  238.669  225.669  312.669
 -69.3305 -1.33054 -87.3305  13.6695
 22.305 22.315 22.325 22.335 22.345 22.355 22.365 22.375 22.385 22.395
 29.505 29.515 29.525 29.535 29.545 29.555 29.565 29.575 29.585 29.595
 36.705 36.715 36.725 36.735 36.745 36.755 36.765 36.775 36.785 36.795
  3429.  3528.  3497.  3531.  3534.  3480.  3540.  3607.  3546.  3513.
  3053.  3009.  3005.  3043.  3057.  3158.  2941.  3077.  3039.  2964.
  2554.  2438.  2505.  2456.  2468.  2549.  2350.  2429.  2447.  2482.
 18.705 18.715 18.725 18.735 18.745 18.755 18.765 18.775 18.785 18.795
 25.905 25.915 25.925 25.935 25.945 25.955 25.965 25.975 25.985 25.995
 -624.549 -667.549 -634.549 -640.549
  1108.45  1205.45  1205.45  1165.45
  1099.45  1165.45  1179.45  1192.45
  544.451  557.451  549.451  525.451
  215.451  74.451  57.451  180.451
  167.451 -74.549  25.451 -26.549
  8.53028  30.5303  44.5303  27.5303
 -34.4697  86.5303  69.5303 -0.469718
 24.505 24.515 24.525 24.535 24.545 24.555 24.565 24.575 24.585 24.595
 31.705 31.715 31.725 31.735 31.745 31.755 31.765 31.775 31.785 31.795
 38.905 38.915 38.925 38.935 38.945 38.955 38.965 38.975 38.985 38.995
  3700.  3578.  3567.  3719.  3629.  3512.  3522.  3565.  3514.  3463.
  2550.  2701.  2709.  2699.  2677.  2597.  2604.  2651.  2656.  2625.
  2373.  2342.  2311.  2217.  2266.  2274.  2253.  2389.  2338.  2328.
 21.905 21.915 21.925 21.935 21.945 21.955 21.965 21.975 21.985 21.995
 29.105 29.115 29.125 29.135 29.145 29.155 29.165 29.175 29.185 29.195
  1118.2  1058.2  1102.2  1044.2
  619.2  712.2  668.2  699.2
  233.2  395.2  218.2  354.2
 -105.8 -43.8 -67.8 -140.8
  5162.52  5475.52  5385.52  5520.52
 19.105 19.115 19.125 19.135 19.145 19.155 19.165 19.175 19.185 19.195
 26.305 26.315 26.325 26.335 26.345 26.355 26.365 26.375 26.385 26.395
 33.505 33.515 33.525 33.535 33.545 33.555 33.565 33.575 33.585 33.595
 40.705 40.715 40.725 40.735 40.745 40.755 40.765 40.775 40.785 40.795
  3303.  3305.  3372.  3284.  3364.  3304.  3271.  3249.  3307.  3293.
  2359.  2480.  2509.  2408.  2433.  2450.  2351.  2418.  2323.  2467.
  2136.  2153.  2160.  2143.  2282.  2101.  2089.  2004.  2049.  2104.
 20.705 20.715 20.725 20.735 20.745 20.755 20.765 20.775 20.785 20.795
 27.905 27.915 27.925 27.935 27.945 27.955 27.965 27.975 27.985 27.995
  902.118  924.118  875.118  829.118
  436.118  442.118  556.118  494.118
  195.118  247.118  143.118  229.118
 41.905 41.915 41.925 41.935 41.945 41.955 41.965 41.975 41.985 41.995
  226.376  221.376  167.376  110.376
 25.905 25.915 25.925 25.935 25.945 25.955 25.965 25.975 25.985 25.995
 33.105 33.115 33.125 33.135 33.145 33.155 33.165 33.175 33.185 33.195
 40.305 40.315 40.325 40.335 40.345 40.355 40.365 40.375 40.385 40.395
 47.505 47.515 47.525 47.535 47.545 47.555 47.565 47.575 47.585 47.595
 2528. 2387. 2403. 2451. 2417. 2443. 2437. 2426. 2379. 2450. 2466. 2429.
 2061. 2117. 2031. 2022. 2040. 2060. 2049. 2155. 2012. 2054. 2043. 1984.
 2051. 2011. 2042. 2027. 1945. 1992. 2032. 2012. 2108. 2088. 2182. 2005.
 26.605 26.615 26.625 26.635 26.645 26.655 26.665 26.675 26.685 26.695
  489.692  432.692  450.692  434.692  381.692
 41.205 41.215 41.225 41.235 41.245 41.255 41.265 41.275 41.285 41.295
  110.044 -21.9561  46.0439  165.044
 21.705 21.715 21.725 21.735 21.745 21.755 21.765 21.775 21.785 21.795
 28.905 28.915 28.925 28.935 28.945 28.955 28.965 28.975 28.985 28.995
 36.105 36.115 36.125 36.135 36.145 36.155 36.165 36.175 36.185 36.195
 43.305 43.315 43.325 43.335 43.345 43.355 43.365 43.375 43.385 43.395
 2770. 2779. 2845. 2760. 2798. 2778. 2810. 2727. 2898. 2745. 2734. 2727.
 2014. 2071. 2074. 1949. 2075. 1944. 1961. 2023. 2036. 2042. 2034. 2056.
 1869. 1835. 1926. 1854. 1861. 1918. 1886. 1858. 1944. 1870. 1889. 1819.
 24.305 24.315 24.325 24.335 24.345 24.355 24.365 24.375 24.385 24.395
  523.36  574.36  638.36  512.36  665.36
   55.3597   38.3597   95.3597   81.3597  102.36
  94.2879  121.288  86.2879  108.288
 22.905 22.915 22.925 22.935 22.945 22.955 22.965 22.975 22.985 22.995
 30.105 30.115 30.125 30.135 30.145 30.155 30.165 30.175 30.185 30.195
 37.305 37.315 37.325 37.335 37.345 37.355 37.365 37.375 37.385 37.395
 44.505 44.515 44.525 44.535 44.545 44.555 44.565 44.575 44.585 44.595
 2177. 2195. 2252. 2340. 2310. 2340. 2296. 2366. 2364. 2260. 2354. 2354.
 1953. 1882. 1866. 1857. 1958. 1859. 1959. 1830. 1884. 1955. 1911. 1854.
 1748. 1753. 1755. 1714. 1878. 1696. 1787. 1632. 1770. 1789. 1727. 1801.
 24.105 24.115 24.125 24.135 24.145 24.155 24.165 24.175 24.185 24.195
   29.7856   10.7856  -17.2144   38.7856   -8.21437
  3927.34  4118.34  4053.34  4110.34
  23.255  23.265  23.275  23.285  23.295  23.305  23.315  23.325  23.335
  29.735  29.745  29.755  29.765  29.775  29.785  29.795  29.805  29.815
  36.215  36.225  36.235  36.245  36.255  36.265  36.275  36.285  36.295
  42.695  42.705  42.715  42.725  42.735  42.745  42.755  42.765  42.775
  49.175  49.185  49.195  49.205  49.215  49.225  49.235  49.245  49.255
  55.655  55.665  55.675  55.685  55.695  55.705  55.715  55.725  55.735
  62.135  62.145  62.155  62.165  62.175  62.185  62.195  62.205  62.215
  68.615  68.625  68.635  68.645  68.655  68.665  68.675  68.685  68.695
  75.095  75.105  75.115  75.125  75.135  75.145  75.155  75.165  75.175
  81.575  81.585  81.595  81.605  81.615  81.625  81.635  81.645  81.655
  88.055  88.065  88.075  88.085  88.095  88.105  88.115  88.125  88.135
  94.535  94.545  94.555  94.565  94.575  94.585  94.595  94.605  94.615
 101.015 101.025 101.035 101.045 101.055 101.065 101.075 101.085 101.095
 107.495 107.505 107.515 107.525 107.535 107.545 107.555 107.565 107.575
 113.975 113.985 113.995 114.005 114.015 114.025 114.035 114.045 114.055
 120.455 120.465 120.475 120.485 120.495 120.505 120.515 120.525 120.535
 126.935 126.945 126.955 126.965 126.975 126.985 126.995 127.005 127.015
 2404. 2382. 2262. 2414. 2346. 2507. 2405. 2325. 2282. 2227. 2327. 2266.
 1749. 1678. 1752. 1750. 1778. 1739. 1645. 1626. 1694. 1834. 1761. 1743.
 1675. 1763. 1787. 1689. 1649. 1607. 1773. 1539. 1635. 1647. 1661. 1748.
 1601. 1687. 1678. 1676. 1648. 1708. 1748. 1623. 1634. 1670. 1700. 1710.
 2249. 2255. 2224. 2127. 2146. 2280. 2155. 2211. 2193. 2161. 2177. 2122.
 1626. 1596. 1605. 1665. 1606. 1729. 1679. 1692. 1758. 1639. 1640. 1671.
 1460. 1484. 1181. 1328. 1310. 1389. 1338. 1302. 1303. 1407. 1329. 1290.
 1753. 1841. 1787. 1718. 1808. 1726. 1747. 1648. 1681. 1727. 1731. 1826.
 1753. 1827. 1798. 1799. 1678. 1745. 1856. 1757. 1769. 1849. 1818. 1643.
 1531. 1540. 1458. 1555. 1425. 1419. 1456. 1536. 1381. 1462. 1585. 1511.
 1653. 1583. 1477. 1559. 1555. 1491. 1476. 1641. 1460. 1516. 1609. 1702.
 1998. 1845. 1909. 1870. 1888. 1928. 1950. 1999. 1927. 1916. 1891. 1870.
 26.005 26.015 26.025 26.035 26.045 26.055 26.065 26.075 26.085 26.095
  472.704  336.704  325.704  313.704
  92.7037  108.704  54.7037 -7.29631
  91.1315  118.131  211.131  129.131
  94.1315  187.131  117.131  6.13149]",787.704,5401.13,123508,462706,0.210687,0.789313,0.127278,0.872722,145.377,147.154